time, pressure, temp, ax, ay, az gx, gy, gz
time, pressure, temp, ax, ay, az gx, gy, gz
time, pressure, temp, ax, ay, az gx, gy, gz
time, pressure, temp, ax, ay, az gx, gy, gz
9303,0.000000,0.000000,-0.028000,-0.006000,-0.979000,0.000000,-2.196000,-0.665000,-0.028000
9315,102338.000000,23.750000,-0.011000,-0.006000,-0.997000,0.000000,2.712000,2.012000,-0.011000
9328,102412.500000,24.062500,-0.011000,-0.004000,-0.977000,0.000000,0.910000,1.531000,-0.011000
9340,102363.500000,23.875000,-0.013000,-0.004000,-0.976000,0.000000,-2.135000,-1.146000,-0.013000
9354,102358.500000,23.875000,-0.014000,-0.003000,-0.981000,0.000000,1.846000,-2.502000,-0.014000
9366,102291.000000,23.625000,-0.007000,0.009000,-0.974000,0.000000,0.971000,1.575000,-0.007000
9379,102377.250000,23.937500,-0.010000,-0.015000,-0.974000,0.000000,0.971000,1.093000,-0.010000
9391,102296.500000,23.625000,-0.008000,-0.004000,-0.980000,0.000000,-0.463000,-3.832000,-0.008000
9404,102386.000000,23.937500,-0.009000,-0.005000,-0.973000,0.000000,1.277000,-0.227000,-0.009000
9417,102307.500000,23.687500,-0.009000,-0.003000,-0.974000,0.000000,-0.332000,0.656000,-0.009000
9430,102342.750000,23.812500,-0.011000,-0.001000,-0.974000,0.000000,4.025000,-0.708000,-0.011000
9443,102427.250000,24.125000,-0.009000,-0.013000,-0.977000,0.000000,1.277000,3.333000,-0.009000
9455,102332.000000,23.687500,-0.013000,0.009000,-0.979000,0.000000,-0.026000,-2.100000,-0.013000
9468,102342.750000,23.812500,-0.015000,-0.003000,-0.975000,0.000000,1.846000,-3.823000,-0.015000
9480,102276.000000,23.562500,-0.012000,-0.003000,-0.976000,0.000000,-3.508000,2.047000,-0.012000
9494,102409.250000,24.062500,-0.005000,-0.004000,-0.981000,0.000000,0.105000,3.771000,-0.005000
9506,102390.000000,24.000000,-0.009000,-0.002000,-0.978000,0.000000,-0.393000,0.691000,-0.009000
9519,102433.250000,24.125000,-0.004000,-0.002000,-0.977000,0.000000,-2.205000,0.166000,-0.004000
9531,102337.250000,23.750000,-0.014000,-0.013000,-0.978000,0.000000,-1.767000,2.003000,-0.014000
9544,102298.500000,23.625000,-0.012000,0.011000,-0.976000,0.000000,1.408000,1.058000,-0.012000
9557,102357.500000,23.875000,-0.012000,-0.005000,-0.981000,0.000000,-4.436000,-2.423000,-0.012000
9570,102351.750000,23.875000,-0.011000,-0.007000,-0.979000,0.000000,-0.962000,3.771000,-0.011000
9583,102258.250000,23.500000,-0.011000,-0.003000,-0.980000,0.000000,-0.962000,6.055000,-0.011000
9595,102460.000000,24.250000,-0.010000,-0.004000,-0.974000,0.000000,0.542000,-0.708000,-0.010000
9608,102369.500000,23.937500,-0.011000,-0.004000,-0.978000,0.000000,-4.436000,-0.708000,-0.011000
9621,102324.250000,23.750000,-0.012000,0.012000,-0.982000,0.000000,0.971000,-0.262000,-0.012000
9634,102392.500000,24.000000,-0.010000,-0.004000,-0.969000,0.000000,2.213000,-1.583000,-0.010000
9646,102361.250000,23.875000,-0.008000,-0.001000,-0.977000,0.000000,0.411000,3.771000,-0.008000
9659,102257.500000,23.500000,-0.005000,-0.003000,-0.975000,0.000000,-3.937000,0.175000,-0.005000
9671,102390.250000,24.000000,-0.012000,0.012000,-0.971000,0.000000,-0.026000,-1.505000,-0.012000
9685,102511.250000,24.500000,-0.012000,-0.005000,-0.979000,0.000000,-1.767000,1.531000,-0.012000
9697,102414.750000,24.125000,-0.011000,0.012000,-0.980000,0.000000,-2.695000,2.450000,-0.011000
9710,102530.750000,24.562500,-0.012000,-0.015000,-0.978000,0.000000,-0.962000,0.175000,-0.012000
9723,102422.000000,24.125000,-0.001000,-0.009000,-0.983000,0.000000,-0.026000,3.806000,-0.001000
9735,102357.000000,23.875000,-0.014000,0.009000,-0.983000,0.000000,-2.196000,-4.340000,-0.014000
9748,102425.750000,24.125000,-0.007000,-0.008000,-0.979000,0.000000,-1.767000,-1.146000,-0.007000
9761,102267.500000,23.500000,-0.012000,-0.004000,-0.978000,0.000000,-0.892000,-2.030000,-0.012000
9774,102425.250000,24.125000,-0.011000,-0.003000,-0.976000,0.000000,-4.873000,0.612000,-0.011000
9786,102311.250000,23.687500,-0.012000,-0.007000,-0.973000,0.000000,0.910000,-1.181000,-0.012000
9799,102413.750000,24.062500,-0.014000,-0.005000,-0.981000,0.000000,0.910000,3.815000,-0.014000
9811,102400.250000,24.062500,-0.010000,-0.001000,-0.979000,0.000000,1.846000,-1.102000,-0.010000
9825,102462.750000,24.250000,-0.015000,-0.015000,-0.978000,0.000000,-4.007000,1.163000,-0.015000
9837,102351.250000,23.812500,-0.001000,-0.003000,-0.978000,0.000000,-0.525000,0.245000,-0.001000
9850,102437.750000,24.187500,-0.008000,0.011000,-0.976000,0.000000,-1.828000,0.140000,-0.008000
9863,102334.250000,23.812500,-0.009000,-0.014000,-0.974000,0.000000,-2.196000,-1.181000,-0.009000
9955,102333.250000,23.750000,-0.008000,-0.006000,-0.974000,0.000000,4.086000,-4.270000,-0.008000
9969,102393.750000,24.062500,-0.008000,-0.007000,-0.976000,0.000000,0.910000,-2.983000,-0.008000
9981,102460.000000,24.250000,-0.013000,-0.005000,-0.981000,0.000000,-2.196000,0.656000,-0.013000
9994,102397.750000,24.062500,-0.009000,-0.009000,-0.983000,0.000000,-0.892000,2.852000,-0.009000
10006,102347.500000,23.812500,-0.010000,-0.003000,-0.975000,0.000000,0.472000,-0.743000,-0.010000
10019,102299.000000,23.687500,-0.027000,0.000000,-0.976000,0.000000,-4.068000,1.531000,-0.027000
10032,102436.250000,24.187500,-0.028000,-0.001000,-0.980000,0.000000,-0.892000,0.577000,-0.028000
10045,102323.500000,23.812500,-0.007000,0.000000,-0.977000,0.000000,0.472000,-0.708000,-0.007000
10058,102460.250000,24.250000,-0.017000,-0.001000,-0.978000,0.000000,-3.132000,1.977000,-0.017000
10070,102400.500000,24.062500,-0.011000,0.013000,-0.976000,0.000000,-4.007000,2.896000,-0.011000
10083,102354.500000,23.875000,-0.014000,0.013000,-0.981000,0.000000,1.785000,-1.583000,-0.014000
10095,102371.500000,23.937500,-0.007000,-0.009000,-0.966000,0.000000,-1.767000,1.093000,-0.007000
10109,102386.500000,24.000000,-0.032000,0.000000,-0.995000,0.000000,-3.071000,-0.183000,-0.032000
10121,102281.750000,23.562500,0.000000,0.000000,-0.986000,0.000000,-4.007000,-2.021000,0.000000
10134,102393.250000,24.062500,-0.008000,0.007000,-0.975000,0.000000,0.472000,-0.743000,-0.008000
10146,102382.750000,24.000000,0.002000,0.008000,-0.982000,0.000000,3.587000,-0.227000,0.002000
10159,102419.500000,24.125000,0.008000,0.000000,-0.985000,0.000000,-1.330000,3.333000,0.008000
10172,102440.750000,24.187500,-0.006000,0.014000,-0.972000,0.000000,-2.695000,3.815000,-0.006000
10185,102349.000000,23.812500,-0.002000,-0.005000,-0.972000,0.000000,0.542000,2.415000,-0.002000
10198,102333.500000,23.812500,-0.005000,-0.013000,-0.971000,0.000000,-3.937000,-2.100000,-0.005000
10210,102427.750000,24.187500,-0.010000,-0.030000,-0.968000,0.000000,-2.196000,1.137000,-0.010000
10223,102319.250000,23.687500,-0.021000,-0.028000,-0.971000,0.000000,-4.007000,1.977000,-0.021000
10236,102293.500000,23.625000,-0.020000,-0.006000,-0.971000,0.000000,0.910000,2.931000,-0.020000
10249,102339.750000,23.812500,-0.022000,-0.004000,-0.999000,0.000000,-3.508000,0.656000,-0.022000
10261,102357.500000,23.875000,-0.031000,0.004000,-0.972000,0.000000,-0.831000,1.933000,-0.031000
10274,102337.750000,23.750000,-0.017000,0.001000,-0.968000,0.000000,-1.767000,-2.948000,-0.017000
10287,102326.500000,23.812500,-0.018000,0.013000,-0.978000,0.000000,-0.026000,1.058000,-0.018000
10299,102372.250000,23.937500,-0.025000,-0.001000,-0.981000,0.000000,-1.767000,-2.030000,-0.025000
10313,102298.250000,23.687500,-0.005000,-0.014000,-0.978000,0.000000,1.041000,-2.546000,-0.005000
10325,102406.000000,24.062500,-0.007000,-0.004000,-0.972000,0.000000,-4.436000,1.058000,-0.007000
10338,102362.250000,23.937500,0.001000,-0.004000,-0.974000,0.000000,1.347000,-0.665000,0.001000
10350,102412.000000,24.125000,0.007000,0.000000,-0.977000,0.000000,3.150000,-4.270000,0.007000
10363,102401.250000,24.062500,0.003000,0.000000,-0.978000,0.000000,-3.071000,1.093000,0.003000
10376,102400.000000,24.062500,-0.010000,-0.002000,-0.976000,0.000000,-0.831000,2.056000,-0.010000
10389,102392.250000,24.000000,-0.012000,-0.006000,-0.985000,0.000000,-0.393000,1.093000,-0.012000
10401,102425.250000,24.125000,-0.009000,-0.006000,-0.979000,0.000000,1.347000,3.368000,-0.009000
10414,102374.250000,23.937500,-0.014000,-0.004000,-0.973000,0.000000,-4.068000,-1.583000,-0.014000
10427,102382.000000,24.000000,-0.029000,-0.006000,-0.978000,0.000000,-2.633000,0.656000,-0.029000
10442,102414.500000,24.125000,-0.038000,-0.006000,-0.978000,0.000000,-1.268000,-4.305000,-0.038000
10455,102370.000000,23.937500,-0.039000,-0.006000,-0.973000,0.000000,-4.436000,1.968000,-0.039000
10467,102316.500000,23.687500,-0.046000,-0.001000,-0.973000,0.000000,1.776000,1.487000,-0.046000
10480,102513.250000,24.500000,-0.019000,0.000000,-0.978000,0.000000,-1.330000,-1.146000,-0.019000
10492,102271.750000,23.562500,-0.024000,0.004000,-0.979000,0.000000,0.848000,-2.030000,-0.024000
10506,102416.250000,24.125000,-0.002000,0.003000,-0.981000,0.000000,1.347000,1.575000,-0.002000
10518,102442.250000,24.187500,-0.012000,0.005000,-0.982000,0.000000,0.043000,1.531000,-0.012000
10531,102422.000000,24.125000,0.014000,0.003000,-0.970000,0.000000,-0.892000,1.058000,0.014000
10544,102205.000000,23.312500,0.002000,-0.011000,-0.996000,0.000000,2.283000,-0.262000,0.002000
10556,102285.750000,23.625000,0.014000,-0.001000,-0.975000,0.000000,-4.068000,2.975000,0.014000
10569,102312.250000,23.750000,0.005000,-0.011000,-0.975000,0.000000,-3.071000,-1.627000,0.005000
10582,102333.500000,23.750000,-0.014000,-0.030000,-0.980000,0.000000,-3.132000,-1.181000,-0.014000
10595,102388.500000,24.000000,-0.007000,0.000000,-0.973000,0.000000,-1.767000,2.415000,-0.007000
10608,102418.750000,24.125000,0.000000,-0.016000,-0.979000,0.000000,-2.633000,-0.227000,0.000000
10620,102479.750000,24.375000,0.000000,-0.002000,-0.979000,0.000000,1.347000,1.531000,0.000000
10633,102366.500000,23.875000,-0.027000,-0.013000,-0.981000,0.000000,-2.135000,-0.306000,-0.027000
10646,102376.750000,23.937500,-0.020000,0.015000,-0.977000,0.000000,-2.196000,1.575000,-0.020000
10659,102395.750000,24.062500,-0.017000,0.005000,-0.977000,0.000000,-3.071000,-2.065000,-0.017000
10671,102315.500000,23.687500,-0.018000,0.011000,-0.983000,0.000000,-0.892000,-2.065000,-0.018000
10684,102331.500000,23.812500,-0.001000,0.008000,-0.980000,0.000000,-1.391000,2.012000,-0.001000
10775,102331.500000,23.812500,-0.013000,0.000000,-0.983000,0.000000,3.718000,-3.386000,-0.013000
10789,102442.250000,24.187500,-0.010000,-0.030000,-0.979000,0.000000,-2.073000,-2.546000,-0.010000
10801,102512.750000,24.500000,-0.006000,-0.020000,-0.980000,0.000000,-2.695000,0.656000,-0.006000
10814,102338.500000,23.812500,-0.014000,-0.019000,-0.974000,0.000000,-0.393000,0.253000,-0.014000
10826,102173.250000,23.187500,-0.013000,-0.009000,-0.974000,0.000000,0.848000,1.977000,-0.013000
10839,102364.500000,23.937500,-0.028000,-0.011000,-0.979000,0.000000,1.846000,-1.146000,-0.028000
10852,102453.000000,24.250000,0.000000,-0.004000,-0.978000,0.000000,-0.332000,1.058000,0.000000
10865,102369.250000,23.937500,-0.013000,-0.004000,-0.977000,0.000000,-0.892000,3.377000,-0.013000
10878,102344.750000,23.812500,-0.009000,-0.005000,-0.976000,0.000000,1.347000,-0.708000,-0.009000
10890,102341.250000,23.812500,-0.011000,-0.014000,-0.976000,0.000000,0.472000,1.977000,-0.011000
10903,102234.000000,23.437500,-0.011000,0.015000,-0.982000,0.000000,1.408000,-1.986000,-0.011000
10915,102420.000000,24.125000,-0.010000,0.003000,-0.998000,0.000000,0.542000,-0.262000,-0.010000
10929,102371.750000,23.937500,-0.011000,0.003000,-0.980000,0.000000,-3.937000,-2.546000,-0.011000
10941,102321.000000,23.750000,-0.006000,0.003000,-0.978000,0.000000,0.971000,-0.262000,-0.006000
10954,102468.250000,24.375000,-0.008000,0.004000,-0.979000,0.000000,-0.393000,-4.270000,-0.008000
10967,102514.750000,24.437500,0.000000,-0.013000,-0.993000,0.000000,-1.767000,-1.102000,0.000000
10979,102496.750000,24.437500,-0.005000,-0.002000,-0.980000,0.000000,-1.268000,-2.100000,-0.005000
10993,102392.000000,24.000000,-0.012000,-0.004000,-0.969000,0.000000,-1.268000,3.333000,-0.012000
11005,102420.500000,24.125000,-0.012000,-0.009000,-0.977000,0.000000,-3.937000,-0.708000,-0.012000
11018,102386.000000,24.000000,-0.001000,-0.008000,-0.976000,0.000000,-3.132000,1.531000,-0.001000
11030,102398.750000,24.062500,-0.015000,-0.006000,-0.979000,0.000000,-0.962000,-1.067000,-0.015000
11043,102266.250000,23.562500,-0.012000,-0.003000,-0.982000,0.000000,-0.892000,0.612000,-0.012000
11056,102332.500000,23.812500,-0.013000,-0.004000,-0.978000,0.000000,3.211000,0.210000,-0.013000
11069,102403.000000,24.062500,-0.013000,-0.011000,-0.976000,0.000000,-1.767000,2.012000,-0.013000
11081,102364.250000,23.875000,-0.007000,-0.007000,-0.981000,0.000000,-4.007000,2.450000,-0.007000
11094,102347.000000,23.812500,-0.015000,-0.003000,-0.975000,0.000000,-0.393000,0.175000,-0.015000
11107,102359.250000,23.875000,-0.012000,-0.006000,-0.972000,0.000000,-0.393000,3.771000,-0.012000
11120,102401.250000,24.062500,-0.011000,-0.004000,-0.972000,0.000000,0.105000,-1.627000,-0.011000
11132,102376.500000,24.000000,-0.009000,0.011000,-0.977000,0.000000,-0.962000,0.210000,-0.009000
11145,102203.000000,23.312500,-0.012000,-0.005000,-0.975000,0.000000,0.472000,0.140000,-0.012000
11158,102425.500000,24.125000,-0.009000,0.000000,-0.982000,0.000000,-1.767000,-2.065000,-0.009000
11170,102311.250000,23.750000,-0.012000,0.011000,-0.979000,0.000000,1.408000,1.058000,-0.012000
11183,102422.500000,24.187500,-0.013000,-0.006000,-0.983000,0.000000,-2.266000,1.977000,-0.013000
11196,102303.000000,23.687500,-0.011000,-0.007000,-0.975000,0.000000,0.043000,-0.183000,-0.011000
11209,102369.500000,23.937500,-0.011000,-0.008000,-0.974000,0.000000,1.408000,1.610000,-0.011000
11221,102331.000000,23.812500,-0.016000,-0.005000,-0.983000,0.000000,-0.455000,1.496000,-0.016000
11234,102343.000000,23.812500,-0.008000,-0.010000,-0.995000,0.000000,0.910000,-2.065000,-0.008000
11247,102378.500000,24.000000,-0.012000,-0.002000,-0.976000,0.000000,-2.695000,-1.986000,-0.012000
11260,102281.500000,23.625000,-0.011000,-0.006000,-0.974000,0.000000,1.846000,-2.065000,-0.011000
11273,102332.250000,23.812500,-0.010000,-0.005000,-0.978000,0.000000,0.043000,-3.867000,-0.010000
11285,102518.000000,24.562500,-0.010000,-0.008000,-0.972000,0.000000,-0.026000,0.691000,-0.010000
11298,102290.500000,23.625000,-0.007000,-0.005000,-0.980000,0.000000,-0.962000,0.612000,-0.007000
11310,102413.250000,24.125000,-0.009000,0.000000,-0.981000,0.000000,1.277000,3.333000,-0.009000
11324,102358.750000,23.937500,-0.007000,-0.003000,-0.981000,0.000000,1.977000,0.210000,-0.007000
11336,102384.750000,24.000000,-0.002000,-0.006000,-0.983000,0.000000,1.846000,3.815000,-0.002000
11349,102286.750000,23.625000,-0.013000,-0.003000,-0.979000,0.000000,-0.332000,2.896000,-0.013000
11362,102373.500000,24.000000,-0.012000,0.000000,-0.972000,0.000000,0.910000,0.656000,-0.012000
11374,102411.250000,24.125000,-0.010000,-0.006000,-0.980000,0.000000,-3.071000,-1.146000,-0.010000
11388,102381.750000,23.937500,-0.014000,-0.001000,-0.982000,0.000000,4.086000,1.531000,-0.014000
11400,102251.250000,23.500000,-0.026000,-0.003000,-0.977000,0.000000,-1.330000,4.252000,-0.026000
11413,102368.750000,23.937500,-0.010000,0.013000,-0.978000,0.000000,-1.330000,4.217000,-0.010000
11425,102398.250000,24.062500,-0.010000,-0.015000,-0.979000,0.000000,-4.436000,1.496000,-0.010000
11438,102182.000000,23.250000,0.000000,-0.005000,-0.978000,0.000000,0.472000,1.093000,0.000000
11451,102397.500000,24.062500,-0.009000,-0.010000,-0.981000,0.000000,-0.962000,-2.065000,-0.009000
11464,102382.500000,24.000000,-0.009000,-0.003000,-0.981000,0.000000,-0.026000,1.058000,-0.009000
11477,102420.250000,24.125000,-0.007000,-0.003000,-0.980000,0.000000,-1.330000,-2.030000,-0.007000
11489,102301.000000,23.687500,-0.001000,0.000000,-0.976000,0.000000,-4.935000,1.575000,-0.001000
11502,102366.750000,23.937500,-0.014000,-0.003000,-0.977000,0.000000,0.848000,0.210000,-0.014000
11593,102189.750000,23.187500,-0.012000,-0.004000,-0.983000,0.000000,3.780000,-3.342000,-0.012000
11607,102337.250000,23.812500,-0.014000,0.000000,-0.977000,0.000000,-0.393000,-3.386000,-0.014000
11619,102345.750000,23.812500,-0.011000,-0.012000,-0.983000,0.000000,-1.330000,-0.218000,-0.011000
11632,102364.000000,23.937500,-0.012000,-0.015000,-0.976000,0.000000,3.150000,0.621000,-0.012000
11644,102450.000000,24.250000,-0.009000,0.000000,-0.983000,0.000000,-2.695000,-2.905000,-0.009000
11657,102308.500000,23.750000,-0.002000,-0.003000,-0.979000,0.000000,1.785000,-4.305000,-0.002000
11672,102350.000000,23.875000,-0.014000,-0.003000,-0.979000,0.000000,-3.937000,-0.306000,-0.014000
11684,102291.500000,23.687500,-0.010000,-0.004000,-0.980000,0.000000,1.785000,1.575000,-0.010000
11697,102191.500000,23.250000,-0.014000,-0.004000,-0.977000,0.000000,-1.767000,-0.708000,-0.014000
11710,102472.750000,24.375000,-0.011000,-0.005000,-0.979000,0.000000,1.347000,-0.262000,-0.011000
11722,102313.750000,23.687500,-0.021000,-0.010000,-0.975000,0.000000,-4.436000,-2.467000,-0.021000
11736,102388.250000,24.000000,-0.010000,-0.008000,-0.973000,0.000000,1.347000,3.377000,-0.010000
11748,102452.250000,24.250000,-0.012000,-0.002000,-0.983000,0.000000,1.408000,1.058000,-0.012000
11761,102368.000000,23.937500,-0.013000,-0.003000,-0.968000,0.000000,-0.892000,0.175000,-0.013000
11773,102356.000000,23.875000,-0.012000,0.000000,-0.977000,0.000000,-6.247000,2.415000,-0.012000
11786,102384.500000,24.062500,-0.026000,-0.005000,-0.975000,0.000000,-0.831000,-1.592000,-0.026000
11799,102386.000000,24.000000,-0.002000,-0.001000,-0.979000,0.000000,-0.892000,-2.030000,-0.002000
11812,102278.750000,23.562500,-0.002000,0.011000,-0.976000,0.000000,1.846000,-1.181000,-0.002000
11825,102401.000000,24.062500,-0.023000,0.011000,-0.973000,0.000000,-3.570000,-1.583000,-0.023000
11837,102462.000000,24.312500,-0.014000,0.010000,-0.981000,0.000000,0.043000,0.612000,-0.014000
11850,102340.750000,23.812500,-0.014000,0.015000,-0.968000,0.000000,-1.330000,-1.548000,-0.014000
11862,102329.750000,23.812500,-0.009000,-0.007000,-0.976000,0.000000,-2.633000,-1.146000,-0.009000
11876,102304.500000,23.687500,-0.009000,-0.014000,-0.983000,0.000000,-0.525000,1.137000,-0.009000
11888,102253.000000,23.500000,-0.012000,-0.015000,-0.974000,0.000000,1.846000,1.058000,-0.012000
11901,102354.500000,23.875000,-0.002000,-0.002000,-0.976000,0.000000,2.213000,4.296000,-0.002000
11914,102301.000000,23.687500,-0.014000,-0.002000,-0.976000,0.000000,-4.068000,1.531000,-0.014000
11926,102406.250000,24.125000,-0.007000,-0.005000,-0.978000,0.000000,-0.026000,0.140000,-0.007000
11939,102365.500000,23.875000,-0.011000,-0.005000,-0.982000,0.000000,0.472000,-1.181000,-0.011000
11952,102371.500000,23.937500,-0.012000,-0.006000,-0.979000,0.000000,-4.436000,0.612000,-0.012000
11965,102349.000000,23.812500,-0.011000,0.000000,-0.976000,0.000000,1.846000,2.415000,-0.011000
11977,102344.250000,23.875000,-0.011000,-0.002000,-0.979000,0.000000,-1.767000,2.852000,-0.011000
11990,102420.250000,24.125000,-0.014000,-0.005000,-0.977000,0.000000,2.213000,1.575000,-0.014000
12003,102358.500000,23.937500,-0.022000,-0.003000,-0.971000,0.000000,1.408000,0.210000,-0.022000
12016,102374.000000,23.937500,-0.012000,-0.014000,-0.981000,0.000000,-0.026000,-0.262000,-0.012000
12028,102346.250000,23.875000,-0.012000,-0.002000,-0.977000,0.000000,-0.393000,-1.146000,-0.012000
12041,102408.750000,24.125000,-0.011000,0.000000,-0.980000,0.000000,1.776000,1.531000,-0.011000
12054,102386.250000,24.000000,-0.015000,-0.001000,-0.968000,0.000000,-0.393000,-0.708000,-0.015000
12066,102302.000000,23.687500,-0.006000,-0.002000,-0.975000,0.000000,-3.202000,-0.708000,-0.006000
12080,102334.500000,23.812500,-0.008000,0.000000,-0.975000,0.000000,1.478000,1.933000,-0.008000
12092,102379.000000,24.000000,-0.010000,-0.005000,-0.983000,0.000000,-0.393000,-3.823000,-0.010000
12105,102368.500000,23.937500,-0.010000,-0.004000,-0.977000,0.000000,-3.937000,1.058000,-0.010000
12117,102388.500000,24.000000,-0.009000,-0.008000,-0.980000,0.000000,-0.455000,1.058000,-0.009000
12130,102341.250000,23.875000,-0.026000,-0.001000,-0.978000,0.000000,-0.393000,-2.030000,-0.026000
12143,102320.500000,23.812500,-0.008000,-0.006000,-0.972000,0.000000,1.041000,-1.986000,-0.008000
12156,102258.250000,23.562500,-0.012000,-0.005000,-0.983000,0.000000,-2.765000,2.458000,-0.012000
12169,102355.250000,23.875000,-0.011000,0.011000,-0.968000,0.000000,-0.831000,-0.297000,-0.011000
12181,102298.750000,23.625000,-0.011000,-0.003000,-0.981000,0.000000,0.910000,2.896000,-0.011000
12194,102349.750000,23.875000,-0.011000,0.010000,-0.977000,0.000000,-1.767000,3.806000,-0.011000
12207,102413.000000,24.125000,-0.009000,-0.003000,-0.981000,0.000000,0.971000,1.128000,-0.009000
12220,102225.750000,23.375000,-0.008000,-0.014000,-0.982000,0.000000,4.453000,6.457000,-0.008000
12232,102442.250000,24.187500,-0.014000,0.000000,-0.979000,0.000000,-0.831000,2.896000,-0.014000
12245,102298.250000,23.687500,-0.002000,0.009000,-0.978000,0.000000,-4.436000,0.656000,-0.002000
12258,102304.250000,23.687500,-0.010000,-0.004000,-0.974000,0.000000,-1.330000,0.656000,-0.010000
12271,102325.750000,23.812500,-0.006000,0.000000,-0.981000,0.000000,0.910000,0.691000,-0.006000
12283,102321.000000,23.812500,-0.007000,-0.005000,-0.978000,0.000000,1.846000,2.931000,-0.007000
12296,102335.000000,23.812500,-0.010000,-0.004000,-0.976000,0.000000,-1.268000,0.656000,-0.010000
12309,102361.000000,23.875000,-0.009000,-0.014000,-0.975000,0.000000,1.347000,1.531000,-0.009000
12321,102248.250000,23.500000,-0.029000,-0.002000,-0.979000,0.000000,0.472000,4.296000,-0.029000
12413,102379.000000,24.000000,-0.007000,-0.002000,-0.980000,0.000000,3.281000,-3.780000,-0.007000
12426,102323.250000,23.812500,-0.013000,-0.003000,-0.978000,0.000000,1.347000,-3.386000,-0.013000
12439,102332.500000,23.812500,0.000000,-0.003000,-0.981000,0.000000,-1.828000,3.928000,0.000000
12451,102459.000000,24.312500,-0.009000,-0.004000,-0.979000,0.000000,-0.455000,-0.262000,-0.009000
12464,102313.000000,23.812500,-0.009000,-0.005000,-0.981000,0.000000,-1.767000,-3.867000,-0.009000
12476,102390.500000,24.062500,-0.010000,-0.005000,-0.968000,0.000000,-0.455000,4.252000,-0.010000
12490,102422.500000,24.125000,-0.010000,-0.003000,-0.978000,0.000000,0.105000,0.210000,-0.010000
12502,102311.000000,23.750000,-0.013000,-0.003000,-0.980000,0.000000,-0.393000,3.815000,-0.013000
12515,102412.500000,24.125000,-0.028000,0.000000,-0.975000,0.000000,-1.697000,-1.627000,-0.028000
12528,102271.000000,23.625000,-0.001000,-0.003000,-0.976000,0.000000,-0.962000,-2.030000,-0.001000
12540,102321.000000,23.750000,-0.010000,0.013000,-0.981000,0.000000,-2.196000,0.210000,-0.010000
12554,102441.500000,24.187500,-0.014000,-0.003000,-0.979000,0.000000,1.347000,4.217000,-0.014000
12566,102376.250000,24.000000,-0.011000,-0.004000,-0.974000,0.000000,-5.810000,-1.102000,-0.011000
12579,102347.750000,23.812500,-0.012000,0.000000,-0.978000,0.000000,-1.391000,0.210000,-0.012000
12591,102319.000000,23.750000,-0.011000,-0.014000,-0.982000,0.000000,-3.071000,-1.583000,-0.011000
12604,102395.500000,24.062500,-0.011000,0.014000,-0.968000,0.000000,-1.330000,-0.708000,-0.011000
12617,102409.500000,24.125000,0.000000,-0.003000,-0.979000,0.000000,0.105000,-0.708000,0.000000
12630,102308.500000,23.687500,-0.006000,0.014000,-0.978000,0.000000,1.785000,-0.708000,-0.006000
12642,102273.500000,23.625000,-0.006000,-0.004000,-0.975000,0.000000,-1.828000,1.575000,-0.006000
12655,102390.250000,24.000000,-0.001000,-0.002000,-0.979000,0.000000,0.910000,1.898000,-0.001000
12668,102339.250000,23.875000,-0.014000,-0.003000,-0.980000,0.000000,-1.767000,3.815000,-0.014000
12681,102350.750000,23.875000,-0.026000,-0.007000,-0.978000,0.000000,2.345000,-0.183000,-0.026000
12694,102383.250000,24.000000,-0.011000,-0.001000,-0.980000,0.000000,-3.937000,0.253000,-0.011000
12706,102383.000000,24.000000,-0.001000,-0.001000,-0.979000,0.000000,0.411000,-2.030000,-0.001000
12719,102363.500000,23.937500,-0.011000,-0.006000,-0.974000,0.000000,-4.436000,-1.592000,-0.011000
12731,102327.750000,23.812500,-0.007000,-0.005000,-0.976000,0.000000,3.211000,4.217000,-0.007000
12744,102324.000000,23.750000,-0.012000,0.010000,-0.976000,0.000000,1.715000,1.496000,-0.012000
12757,102280.750000,23.625000,-0.011000,-0.007000,-0.979000,0.000000,-4.007000,-0.306000,-0.011000
12770,102376.250000,24.000000,-0.013000,0.010000,-0.972000,0.000000,0.043000,-1.583000,-0.013000
12783,102397.250000,24.062500,-0.014000,-0.007000,-0.979000,0.000000,-2.633000,3.815000,-0.014000
12795,102272.750000,23.562500,-0.010000,0.000000,-0.993000,0.000000,0.542000,-1.662000,-0.010000
12808,102363.500000,23.937500,-0.008000,-0.003000,-0.981000,0.000000,-0.892000,-1.548000,-0.008000
12823,102325.000000,23.812500,-0.011000,-0.014000,-0.982000,0.000000,-0.332000,-3.867000,-0.011000
12835,102344.500000,23.875000,-0.012000,-0.003000,-0.973000,0.000000,-0.892000,3.815000,-0.012000
12848,102426.750000,24.187500,-0.008000,-0.015000,-0.981000,0.000000,-0.892000,3.771000,-0.008000
12860,102471.250000,24.312500,-0.009000,0.012000,-0.980000,0.000000,-3.570000,0.612000,-0.009000
12873,102347.250000,23.875000,-0.010000,-0.006000,-0.974000,0.000000,-2.196000,-2.065000,-0.010000
12886,102415.750000,24.125000,-0.010000,-0.005000,-0.975000,0.000000,-2.633000,-2.065000,-0.010000
12899,102373.500000,23.937500,-0.007000,-0.003000,-0.973000,0.000000,-1.767000,1.531000,-0.007000
12912,102371.250000,24.000000,-0.012000,-0.004000,-0.976000,0.000000,-0.892000,0.612000,-0.012000
12924,102313.750000,23.750000,-0.008000,0.008000,-0.982000,0.000000,-4.436000,0.612000,-0.008000
12937,102258.250000,23.500000,-0.013000,-0.005000,-0.976000,0.000000,0.472000,1.531000,-0.013000
12950,102431.000000,24.187500,-0.009000,-0.002000,-0.981000,0.000000,0.105000,-2.030000,-0.009000
12963,102408.000000,24.125000,-0.009000,-0.002000,-0.973000,0.000000,-2.633000,-2.065000,-0.009000
12976,102393.250000,24.062500,-0.027000,-0.002000,-0.979000,0.000000,-3.071000,1.058000,-0.027000
12988,102355.750000,23.875000,-0.015000,0.013000,-0.968000,0.000000,-1.767000,0.656000,-0.015000
13001,102389.250000,24.062500,-0.012000,-0.002000,-0.977000,0.000000,-1.330000,2.450000,-0.012000
13013,102342.500000,23.812500,-0.012000,0.000000,-0.978000,0.000000,0.472000,-1.146000,-0.012000
13027,102374.500000,23.937500,-0.014000,0.011000,-0.981000,0.000000,-0.026000,0.140000,-0.014000
13039,102372.750000,24.000000,-0.029000,-0.013000,-0.982000,0.000000,1.785000,3.342000,-0.029000
13052,102416.500000,24.125000,-0.015000,0.000000,-0.981000,0.000000,-2.196000,-2.065000,-0.015000
13064,102430.500000,24.187500,-0.010000,-0.006000,-0.976000,0.000000,-4.007000,1.531000,-0.010000
13077,102246.500000,23.437500,-0.007000,0.012000,-0.976000,0.000000,-0.393000,2.887000,-0.007000
13090,102340.000000,23.750000,-0.006000,-0.002000,-0.974000,0.000000,-1.268000,-0.227000,-0.006000
13103,102351.500000,23.875000,-0.005000,-0.003000,-0.976000,0.000000,-4.436000,-1.181000,-0.005000
13116,102275.750000,23.562500,-0.011000,-0.005000,-0.979000,0.000000,-3.570000,-1.583000,-0.011000
13128,102396.750000,24.062500,-0.005000,-0.004000,-0.981000,0.000000,1.408000,0.656000,-0.005000
13141,102298.750000,23.625000,-0.009000,-0.002000,-0.975000,0.000000,1.846000,1.977000,-0.009000
13233,102359.500000,23.937500,-0.010000,0.015000,-0.976000,0.000000,-2.073000,-0.350000,-0.010000
13245,102378.000000,24.000000,-0.013000,-0.004000,-0.981000,0.000000,0.472000,-3.788000,-0.013000
13258,102324.750000,23.812500,-0.025000,-0.006000,-0.977000,0.000000,-0.455000,3.815000,-0.025000
13271,102401.000000,24.062500,-0.013000,-0.006000,-0.981000,0.000000,-0.831000,-4.340000,-0.013000
13283,102277.500000,23.562500,-0.014000,0.013000,-0.981000,0.000000,0.472000,-4.305000,-0.014000
13297,102329.250000,23.812500,-0.012000,0.000000,-0.976000,0.000000,1.907000,-1.146000,-0.012000
13309,102319.250000,23.750000,-0.014000,0.011000,-0.972000,0.000000,-6.308000,-1.102000,-0.014000
13322,102415.500000,24.125000,-0.010000,-0.006000,-0.992000,0.000000,0.472000,-0.306000,-0.010000
13334,102361.250000,23.875000,-0.011000,0.000000,-0.975000,0.000000,-3.631000,0.612000,-0.011000
13347,102329.000000,23.750000,-0.009000,-0.005000,-0.976000,0.000000,1.846000,-1.627000,-0.009000
13360,102392.250000,24.062500,-0.010000,0.012000,-0.978000,0.000000,-0.455000,-2.021000,-0.010000
13373,102352.000000,23.875000,0.000000,-0.007000,-0.970000,0.000000,-2.135000,1.496000,0.000000
13386,102350.500000,23.875000,-0.014000,0.000000,-0.973000,0.000000,1.408000,1.531000,-0.014000
13398,102409.250000,24.125000,-0.009000,-0.005000,-0.980000,0.000000,-4.068000,3.377000,-0.009000
13411,102376.500000,24.000000,-0.006000,-0.015000,-0.981000,0.000000,-1.767000,-2.065000,-0.006000
13423,102252.000000,23.500000,-0.013000,-0.014000,-0.978000,0.000000,-1.330000,-3.386000,-0.013000
13437,102347.750000,23.875000,-0.014000,-0.001000,-0.971000,0.000000,-1.767000,-1.627000,-0.014000
13449,102384.000000,23.937500,-0.013000,-0.002000,-0.978000,0.000000,-0.892000,5.976000,-0.013000
13462,102428.500000,24.187500,-0.010000,-0.003000,-0.976000,0.000000,0.043000,-0.708000,-0.010000
13474,102381.750000,24.000000,-0.013000,-0.003000,-0.981000,0.000000,-2.073000,-1.146000,-0.013000
13487,102350.500000,23.875000,-0.012000,-0.004000,-0.980000,0.000000,2.213000,0.253000,-0.012000
13500,102276.500000,23.625000,-0.011000,-0.002000,-0.974000,0.000000,1.785000,0.656000,-0.011000
13513,102412.750000,24.125000,-0.007000,-0.002000,-0.979000,0.000000,1.785000,1.058000,-0.007000
13526,102287.500000,23.687500,-0.008000,-0.003000,-0.980000,0.000000,1.846000,1.058000,-0.008000
13538,102371.000000,24.000000,-0.002000,-0.003000,-0.974000,0.000000,-1.391000,-0.271000,-0.002000
13551,102369.000000,23.937500,-0.009000,0.012000,-0.991000,0.000000,1.408000,-1.146000,-0.009000
13564,102296.000000,23.625000,-0.001000,-0.005000,-0.975000,0.000000,1.846000,-1.662000,-0.001000
13577,102424.250000,24.187500,-0.027000,-0.005000,-0.978000,0.000000,-0.026000,-0.262000,-0.027000
13589,102346.250000,23.875000,-0.011000,-0.004000,-0.981000,0.000000,-2.196000,1.977000,-0.011000
13602,102393.750000,24.062500,-0.014000,-0.001000,-0.975000,0.000000,0.043000,1.058000,-0.014000
13615,102430.250000,24.187500,-0.013000,-0.012000,-0.994000,0.000000,-1.767000,0.612000,-0.013000
13628,102370.750000,24.000000,-0.007000,-0.002000,-0.978000,0.000000,-4.068000,0.175000,-0.007000
13641,102318.500000,23.812500,-0.011000,-0.002000,-0.975000,0.000000,-0.393000,0.612000,-0.011000
13653,102366.750000,23.937500,-0.013000,-0.002000,-0.997000,0.000000,-1.330000,0.253000,-0.013000
13666,102352.250000,23.875000,-0.007000,-0.007000,-0.978000,0.000000,-2.196000,1.531000,-0.007000
13678,102430.500000,24.187500,-0.014000,-0.004000,-0.975000,0.000000,-1.330000,2.931000,-0.014000
13691,102373.000000,24.000000,-0.013000,-0.006000,-0.974000,0.000000,1.277000,5.617000,-0.013000
13704,102388.250000,24.062500,-0.010000,-0.002000,-0.977000,0.000000,0.043000,1.172000,-0.010000
13717,102332.250000,23.812500,0.000000,-0.005000,-0.979000,0.000000,-0.455000,2.012000,0.000000
13729,102246.000000,23.500000,-0.011000,-0.004000,-0.975000,0.000000,-0.026000,-1.190000,-0.011000
13742,102381.000000,24.000000,-0.013000,-0.004000,-0.977000,0.000000,-2.135000,-0.262000,-0.013000
13755,102445.250000,24.250000,-0.022000,-0.006000,-0.977000,0.000000,-3.132000,1.575000,-0.022000
13768,102354.250000,23.875000,-0.011000,-0.001000,-0.979000,0.000000,1.907000,-0.752000,-0.011000
13781,102411.500000,24.125000,-0.010000,-0.003000,-0.982000,0.000000,2.213000,2.415000,-0.010000
13793,102279.750000,23.625000,-0.008000,0.000000,-0.973000,0.000000,1.846000,3.736000,-0.008000
13806,102414.500000,24.125000,-0.006000,-0.005000,-0.970000,0.000000,-2.765000,-2.502000,-0.006000
13818,102355.750000,23.875000,-0.009000,-0.007000,-0.980000,0.000000,-0.831000,0.612000,-0.009000
13832,102419.750000,24.125000,-0.014000,-0.001000,-0.976000,0.000000,-1.268000,0.647000,-0.014000
13844,102339.500000,23.875000,-0.012000,0.000000,-0.978000,0.000000,0.542000,-0.262000,-0.012000
13857,102486.250000,24.437500,-0.025000,-0.008000,-0.981000,0.000000,1.408000,0.175000,-0.025000
13870,102382.750000,24.000000,-0.013000,-0.003000,-0.996000,0.000000,-2.266000,0.210000,-0.013000
13882,102267.750000,23.562500,-0.006000,-0.002000,-0.976000,0.000000,-4.007000,-1.583000,-0.006000
13896,102311.500000,23.812500,-0.014000,-0.007000,-0.975000,0.000000,-1.260000,-2.100000,-0.014000
13908,102339.250000,23.875000,-0.007000,-0.002000,-0.978000,0.000000,-0.761000,-2.502000,-0.007000
13921,102322.500000,23.812500,-0.028000,-0.004000,-0.980000,0.000000,-1.391000,6.457000,-0.028000
13933,102313.500000,23.750000,0.000000,-0.002000,-0.993000,0.000000,-1.767000,1.137000,0.000000
13946,102434.000000,24.250000,-0.014000,-0.005000,-0.982000,0.000000,-2.196000,-2.467000,-0.014000
13958,102273.000000,23.562500,-0.005000,-0.005000,-0.980000,0.000000,0.472000,0.691000,-0.005000
14053,102471.000000,24.312500,-0.008000,-0.003000,-0.979000,0.000000,3.648000,-6.107000,-0.008000
14065,102411.500000,24.187500,-0.015000,-0.005000,-0.977000,0.000000,-3.132000,-2.423000,-0.015000
14078,102297.750000,23.687500,-0.012000,-0.007000,-0.979000,0.000000,-1.268000,3.771000,-0.012000
14091,102304.000000,23.687500,-0.010000,0.000000,-0.976000,0.000000,-0.087000,3.815000,-0.010000
14103,102407.500000,24.125000,-0.014000,-0.003000,-0.975000,0.000000,-1.391000,-0.271000,-0.014000
14116,102342.500000,23.875000,-0.009000,-0.004000,-0.977000,0.000000,-1.268000,-2.065000,-0.009000
14129,102362.000000,23.937500,-0.001000,0.013000,-0.975000,0.000000,-0.892000,0.691000,-0.001000
14142,102315.500000,23.750000,-0.014000,-0.004000,-0.979000,0.000000,-0.026000,0.612000,-0.014000
14154,102330.000000,23.812500,-0.012000,-0.004000,-0.975000,0.000000,-1.767000,-3.386000,-0.012000
14167,102300.750000,23.750000,-0.022000,-0.005000,-0.981000,0.000000,-1.767000,4.296000,-0.022000
14180,102357.000000,23.937500,0.000000,-0.003000,-0.976000,0.000000,1.846000,0.691000,0.000000
14193,102352.500000,23.875000,-0.015000,-0.003000,-0.978000,0.000000,-1.828000,-0.743000,-0.015000
14206,102319.000000,23.750000,-0.013000,-0.004000,-0.976000,0.000000,2.213000,1.093000,-0.013000
14218,102475.750000,24.375000,-0.024000,-0.014000,-0.978000,0.000000,2.283000,-0.227000,-0.024000
14231,102420.000000,24.187500,-0.011000,-0.002000,-0.983000,0.000000,0.542000,-1.627000,-0.011000
14244,102388.250000,24.000000,-0.010000,-0.003000,-0.973000,0.000000,-4.068000,2.012000,-0.010000
14257,102388.500000,24.062500,-0.004000,-0.003000,-0.976000,0.000000,0.472000,4.138000,-0.004000
14269,102371.500000,24.000000,-0.009000,-0.005000,-0.981000,0.000000,-0.455000,-2.030000,-0.009000
14282,102295.250000,23.687500,-0.010000,-0.003000,-0.980000,0.000000,-1.391000,0.656000,-0.010000
14295,102382.750000,24.000000,-0.009000,-0.013000,-0.975000,0.000000,1.408000,-2.065000,-0.009000
14307,102322.000000,23.812500,-0.012000,-0.006000,-0.982000,0.000000,0.472000,1.977000,-0.012000
14320,102433.750000,24.187500,0.000000,-0.001000,-0.972000,0.000000,1.347000,-1.986000,0.000000
14333,102464.000000,24.312500,-0.012000,-0.005000,-0.978000,0.000000,-4.436000,3.333000,-0.012000
14346,102328.750000,23.812500,-0.011000,-0.004000,-0.981000,0.000000,-0.525000,0.577000,-0.011000
14358,102420.000000,24.187500,-0.011000,0.011000,-0.977000,0.000000,-2.765000,0.656000,-0.011000
14371,102364.000000,23.937500,-0.014000,-0.004000,-0.981000,0.000000,1.347000,4.217000,-0.014000
14384,102382.250000,24.062500,-0.010000,-0.005000,-0.996000,0.000000,3.648000,1.610000,-0.010000
14397,102417.500000,24.187500,-0.012000,-0.003000,-0.979000,0.000000,-0.892000,0.210000,-0.012000
14409,102371.250000,23.937500,-0.025000,-0.006000,-0.975000,0.000000,-0.831000,0.612000,-0.025000
14422,102360.000000,23.937500,-0.013000,-0.004000,-0.976000,0.000000,-2.633000,0.656000,-0.013000
14435,102265.000000,23.562500,-0.009000,-0.005000,-0.976000,0.000000,-2.196000,1.531000,-0.009000
14448,102447.250000,24.312500,-0.008000,-0.004000,-0.975000,0.000000,-2.196000,-2.030000,-0.008000
14461,102317.500000,23.750000,-0.010000,-0.001000,-0.980000,0.000000,-2.266000,5.573000,-0.010000
14473,102369.000000,23.937500,-0.012000,-0.005000,-0.975000,0.000000,-2.135000,-0.708000,-0.012000
14486,102346.000000,23.875000,-0.003000,-0.008000,-0.979000,0.000000,-0.026000,-3.823000,-0.003000
14499,102362.500000,24.000000,-0.011000,-0.005000,-0.976000,0.000000,3.211000,0.210000,-0.011000
14512,102325.500000,23.812500,-0.013000,-0.004000,-0.976000,0.000000,-3.508000,-1.146000,-0.013000
14525,102430.250000,24.250000,-0.011000,-0.001000,-0.976000,0.000000,-1.330000,-2.021000,-0.011000
14537,102449.500000,24.250000,0.000000,-0.007000,-0.983000,0.000000,-2.196000,-0.218000,0.000000
14550,102256.000000,23.562500,-0.009000,-0.005000,-0.978000,0.000000,-4.943000,-2.143000,-0.009000
14562,102378.250000,24.000000,-0.010000,-0.001000,-0.973000,0.000000,0.043000,-2.065000,-0.010000
14576,102351.000000,23.875000,-0.011000,0.012000,-0.977000,0.000000,-2.695000,-3.823000,-0.011000
14588,102431.000000,24.187500,0.006000,0.013000,-0.978000,0.000000,-3.631000,4.296000,0.006000
14601,102351.000000,23.875000,-0.010000,-0.005000,-0.978000,0.000000,-0.393000,-0.306000,-0.010000
14613,102360.750000,24.000000,-0.014000,-0.002000,-0.976000,0.000000,-0.393000,1.977000,-0.014000
14626,102302.750000,23.750000,-0.014000,-0.004000,-0.978000,0.000000,-1.198000,-2.021000,-0.014000
14639,102424.000000,24.187500,-0.009000,-0.006000,-0.976000,0.000000,1.715000,-3.823000,-0.009000
14652,102433.500000,24.250000,-0.010000,-0.007000,-0.978000,0.000000,-1.268000,3.333000,-0.010000
14665,102388.000000,24.062500,-0.009000,-0.001000,-0.978000,0.000000,-2.196000,-1.583000,-0.009000
14677,102372.500000,24.000000,-0.015000,0.010000,-0.977000,0.000000,2.213000,-1.627000,-0.015000
14690,102299.750000,23.687500,-0.013000,-0.003000,-0.982000,0.000000,-4.935000,-1.102000,-0.013000
14702,102295.250000,23.687500,0.000000,0.001000,-0.979000,0.000000,-1.330000,2.056000,0.000000
14716,102407.750000,24.125000,-0.010000,-0.003000,-0.988000,0.000000,-0.393000,1.977000,-0.010000
14728,102309.750000,23.750000,-0.012000,-0.003000,-0.980000,0.000000,1.277000,-2.100000,-0.012000
14741,102391.750000,24.062500,-0.010000,-0.015000,-0.979000,0.000000,-0.393000,-1.662000,-0.010000
14754,102315.000000,23.750000,-0.007000,-0.004000,-0.980000,0.000000,-3.071000,1.093000,-0.007000
14766,102458.000000,24.312500,-0.014000,-0.004000,-0.978000,0.000000,-2.695000,0.210000,-0.014000
14780,102338.250000,23.875000,-0.012000,-0.003000,-0.978000,0.000000,-3.937000,0.175000,-0.012000
14861,102206.750000,23.312500,0.000000,-0.006000,-0.978000,0.000000,2.213000,-0.665000,0.000000
14874,102283.500000,23.687500,-0.001000,-0.003000,-0.980000,0.000000,-4.436000,4.287000,-0.001000
14886,102386.500000,24.000000,-0.009000,-0.015000,-0.977000,0.000000,-1.767000,-1.505000,-0.009000
14899,102353.750000,23.875000,-0.025000,-0.003000,-0.980000,0.000000,0.411000,-2.056000,-0.025000
14912,102274.250000,23.562500,-0.007000,-0.004000,-0.975000,0.000000,0.411000,0.210000,-0.007000
14925,102362.750000,23.937500,-0.008000,0.013000,-0.979000,0.000000,-3.132000,0.647000,-0.008000
14938,102284.750000,23.625000,-0.005000,-0.003000,-0.977000,0.000000,-0.026000,1.487000,-0.005000
14950,102390.000000,24.062500,-0.014000,-0.011000,-0.978000,0.000000,0.971000,1.058000,-0.014000
14963,102367.000000,23.937500,-0.007000,0.013000,-0.981000,0.000000,-3.132000,-0.227000,-0.007000
14975,102283.500000,23.687500,-0.011000,-0.003000,-0.978000,0.000000,-1.767000,2.852000,-0.011000
14989,102390.250000,24.062500,-0.015000,-0.002000,-0.977000,0.000000,-2.633000,0.210000,-0.015000
15001,102430.250000,24.250000,-0.007000,-0.012000,-0.974000,0.000000,-1.697000,0.210000,-0.007000
15014,102450.250000,24.250000,-0.013000,0.000000,-0.977000,0.000000,-4.068000,-3.867000,-0.013000
15027,102352.750000,23.937500,-0.014000,-0.003000,-0.975000,0.000000,0.542000,-2.948000,-0.014000
15039,102318.000000,23.812500,-0.012000,-0.005000,-0.982000,0.000000,-2.695000,-1.583000,-0.012000
15052,102298.250000,23.687500,-0.028000,-0.002000,-0.970000,0.000000,-1.330000,-0.183000,-0.028000
15065,102387.500000,24.062500,-0.002000,-0.001000,-0.978000,0.000000,-2.196000,1.575000,-0.002000
15078,102333.000000,23.875000,-0.011000,-0.006000,-0.983000,0.000000,1.785000,1.977000,-0.011000
15090,102370.750000,23.937500,-0.011000,-0.015000,-0.974000,0.000000,-0.831000,1.531000,-0.011000
15103,102366.500000,23.937500,-0.023000,-0.009000,-0.979000,0.000000,-0.962000,-2.030000,-0.023000
15116,102388.750000,24.000000,-0.009000,-0.004000,-0.977000,0.000000,0.910000,2.896000,-0.009000
15129,102464.500000,24.312500,-0.026000,0.010000,-0.982000,0.000000,1.041000,-0.306000,-0.026000
15141,102283.500000,23.625000,-0.012000,-0.006000,-0.981000,0.000000,-1.330000,1.977000,-0.012000
15154,102326.250000,23.812500,-0.008000,0.000000,-0.969000,0.000000,-2.266000,0.656000,-0.008000
15167,102451.250000,24.312500,-0.007000,-0.014000,-0.980000,0.000000,0.910000,-2.948000,-0.007000
15182,102378.000000,24.000000,-0.012000,0.008000,-0.975000,0.000000,-1.697000,-1.181000,-0.012000
15194,102364.250000,24.000000,-0.015000,0.011000,-0.981000,0.000000,1.277000,1.531000,-0.015000
15207,102362.750000,23.937500,-0.007000,0.011000,-0.975000,0.000000,-0.393000,0.175000,-0.007000
15219,102372.500000,24.000000,-0.028000,0.010000,-0.973000,0.000000,-3.071000,-3.823000,-0.028000
15232,102324.250000,23.812500,-0.007000,0.000000,-0.975000,0.000000,-2.633000,0.175000,-0.007000
15245,102329.500000,23.812500,-0.012000,-0.014000,-0.981000,0.000000,-0.393000,-2.467000,-0.012000
15258,102376.750000,24.000000,-0.017000,-0.003000,-0.976000,0.000000,0.043000,4.217000,-0.017000
15270,102394.750000,24.125000,-0.010000,-0.014000,-0.980000,0.000000,-0.892000,-3.386000,-0.010000
15283,102372.000000,24.000000,-0.007000,-0.003000,-0.975000,0.000000,-4.007000,0.210000,-0.007000
15296,102394.750000,24.062500,-0.012000,-0.007000,-0.982000,0.000000,0.043000,-0.665000,-0.012000
15308,102338.500000,23.875000,-0.010000,0.010000,-0.977000,0.000000,-0.455000,6.457000,-0.010000
15322,102384.750000,24.000000,-0.009000,-0.003000,-0.978000,0.000000,-0.026000,6.492000,-0.009000
15334,102426.500000,24.187500,-0.012000,-0.004000,-0.977000,0.000000,-2.196000,1.977000,-0.012000
15347,102363.000000,24.000000,-0.015000,-0.005000,-0.981000,0.000000,-1.330000,-3.832000,-0.015000
15360,102366.500000,24.000000,-0.013000,0.000000,-0.985000,0.000000,-0.892000,-1.548000,-0.013000
15372,102385.250000,24.000000,-0.010000,-0.001000,-0.982000,0.000000,0.472000,-0.708000,-0.010000
15385,102375.000000,24.062500,-0.010000,-0.005000,-0.982000,0.000000,3.211000,-2.065000,-0.010000
15398,102467.750000,24.375000,-0.011000,-0.003000,-0.975000,0.000000,-5.810000,2.931000,-0.011000
15411,102371.500000,24.000000,-0.009000,-0.005000,-0.973000,0.000000,-0.831000,-0.743000,-0.009000
15423,102354.000000,23.937500,-0.010000,-0.003000,-0.975000,0.000000,-4.436000,-0.708000,-0.010000
15436,102520.500000,24.562500,-0.015000,-0.002000,-0.974000,0.000000,-4.007000,3.298000,-0.015000
15449,102338.750000,23.875000,-0.008000,-0.003000,-0.981000,0.000000,0.043000,3.815000,-0.008000
15462,102325.750000,23.812500,-0.011000,-0.001000,-0.979000,0.000000,-3.570000,-0.630000,-0.011000
15474,102375.500000,24.000000,-0.009000,-0.003000,-0.974000,0.000000,0.910000,-4.270000,-0.009000
15487,102387.000000,24.062500,-0.025000,-0.003000,-0.969000,0.000000,-3.570000,-2.030000,-0.025000
15500,102378.250000,24.000000,-0.014000,-0.013000,-0.978000,0.000000,-2.266000,-0.262000,-0.014000
15513,102342.500000,23.812500,-0.010000,-0.005000,-0.975000,0.000000,-4.506000,1.575000,-0.010000
15526,102376.000000,24.000000,-0.013000,-0.002000,-0.978000,0.000000,-1.268000,0.647000,-0.013000
15538,102361.250000,24.000000,-0.002000,-0.006000,-0.974000,0.000000,-0.831000,-0.271000,-0.002000
15551,102353.500000,23.937500,-0.009000,-0.002000,-0.981000,0.000000,-2.266000,4.252000,-0.009000
15563,102291.000000,23.687500,-0.006000,-0.006000,-0.981000,0.000000,1.277000,0.175000,-0.006000
15576,102251.250000,23.500000,-0.012000,-0.007000,-0.979000,0.000000,-0.393000,0.700000,-0.012000
15589,102377.000000,24.062500,-0.027000,-0.001000,-0.976000,0.000000,-0.393000,0.183000,-0.027000
15671,102399.000000,24.062500,-0.006000,-0.004000,-0.976000,0.000000,2.213000,-1.951000,-0.006000
15683,102393.250000,24.000000,-0.026000,0.012000,-0.978000,0.000000,2.152000,5.127000,-0.026000
15696,102392.750000,24.062500,-0.013000,-0.004000,-0.983000,0.000000,0.411000,1.496000,-0.013000
15708,102316.500000,23.750000,-0.002000,-0.001000,-0.982000,0.000000,-0.525000,-1.583000,-0.002000
15722,102358.500000,23.937500,-0.010000,-0.014000,-0.979000,0.000000,0.472000,-1.583000,-0.010000
15734,102384.500000,24.062500,-0.007000,-0.004000,-0.996000,0.000000,-2.196000,3.333000,-0.007000
15747,102368.750000,24.000000,-0.025000,-0.007000,-0.979000,0.000000,-4.436000,-0.673000,-0.025000
15759,102276.250000,23.625000,0.000000,-0.001000,-0.970000,0.000000,-5.250000,-0.271000,0.000000
15772,102401.750000,24.125000,-0.011000,-0.005000,-0.978000,0.000000,1.408000,0.691000,-0.011000
15785,102337.500000,23.875000,0.000000,-0.008000,-0.977000,0.000000,-4.436000,-3.832000,0.000000
15798,102351.750000,23.937500,-0.012000,-0.008000,-0.981000,0.000000,-3.132000,3.290000,-0.012000
15811,102361.000000,24.000000,-0.008000,-0.007000,-0.981000,0.000000,0.848000,-2.581000,-0.008000
15823,102297.250000,23.687500,-0.010000,-0.003000,-0.978000,0.000000,0.411000,1.575000,-0.010000
15836,102354.500000,23.937500,-0.015000,-0.005000,-0.980000,0.000000,-0.831000,-1.146000,-0.015000
15849,102444.500000,24.250000,-0.009000,0.000000,-0.968000,0.000000,-0.393000,-0.708000,-0.009000
15862,102339.000000,23.875000,-0.012000,-0.004000,-0.974000,0.000000,0.472000,4.173000,-0.012000
15874,102385.250000,24.000000,-0.025000,-0.009000,-0.978000,0.000000,-0.026000,2.931000,-0.025000
15887,102343.750000,23.875000,-0.009000,-0.004000,-0.972000,0.000000,-2.502000,-3.867000,-0.009000
15899,102450.000000,24.312500,-0.009000,0.015000,-0.976000,0.000000,0.472000,-0.708000,-0.009000
15912,102344.250000,23.875000,-0.001000,-0.004000,-0.979000,0.000000,1.277000,2.931000,-0.001000
15925,102392.000000,24.062500,-0.012000,-0.005000,-0.978000,0.000000,-1.828000,2.931000,-0.012000
15938,102350.500000,23.937500,-0.003000,-0.003000,-0.978000,0.000000,-0.026000,-0.262000,-0.003000
15951,102385.250000,24.062500,-0.006000,-0.008000,-0.976000,0.000000,-0.393000,-1.583000,-0.006000
15963,102350.000000,23.875000,-0.010000,0.000000,-0.983000,0.000000,1.846000,0.656000,-0.010000
15976,102389.500000,24.062500,0.009000,0.000000,-0.970000,0.000000,-1.268000,0.612000,0.009000
15989,102459.250000,24.312500,-0.009000,-0.004000,-0.980000,0.000000,0.542000,-6.545000,-0.009000
16002,102442.500000,24.250000,-0.012000,-0.003000,-0.977000,0.000000,0.411000,0.210000,-0.012000
16015,102366.500000,23.937500,-0.007000,-0.015000,-0.975000,0.000000,-1.260000,-4.261000,-0.007000
16027,102418.000000,24.187500,-0.013000,-0.004000,-0.973000,0.000000,-1.767000,0.183000,-0.013000
16040,102276.750000,23.625000,-0.009000,-0.006000,-0.977000,0.000000,-3.570000,-2.905000,-0.009000
16053,102417.000000,24.187500,-0.013000,-0.007000,-0.981000,0.000000,-2.633000,-2.030000,-0.013000
16066,102320.750000,23.812500,-0.008000,-0.006000,-0.976000,0.000000,-1.330000,1.933000,-0.008000
16078,102354.750000,23.937500,-0.008000,-0.001000,-0.976000,0.000000,0.043000,0.218000,-0.008000
16091,102361.750000,24.000000,-0.011000,-0.003000,-0.976000,0.000000,0.472000,-0.708000,-0.011000
16103,102410.000000,24.125000,-0.014000,-0.001000,-0.978000,0.000000,-1.330000,0.656000,-0.014000
16117,102367.250000,24.000000,-0.011000,-0.002000,-0.980000,0.000000,1.846000,3.333000,-0.011000
16129,102307.250000,23.687500,-0.013000,-0.007000,-0.978000,0.000000,-0.831000,0.175000,-0.013000
16142,102376.750000,24.000000,-0.010000,-0.009000,-0.978000,0.000000,-2.266000,-0.708000,-0.010000
16155,102300.500000,23.750000,-0.013000,-0.001000,-0.974000,0.000000,-2.572000,-0.708000,-0.013000
16167,102360.500000,23.937500,-0.012000,-0.003000,-0.979000,0.000000,0.971000,-1.146000,-0.012000
16180,102309.750000,23.750000,-0.014000,-0.002000,-0.981000,0.000000,2.213000,0.175000,-0.014000
16193,102315.500000,23.750000,-0.015000,-0.002000,-0.975000,0.000000,-1.268000,-0.192000,-0.015000
16206,102408.500000,24.187500,-0.010000,-0.003000,-0.980000,0.000000,-0.455000,2.458000,-0.010000
16218,102315.750000,23.812500,-0.008000,-0.002000,-0.977000,0.000000,-2.633000,-2.056000,-0.008000
16231,102383.750000,24.000000,-0.010000,-0.009000,-0.979000,0.000000,-0.892000,1.496000,-0.010000
16244,102357.250000,23.937500,-0.012000,-0.012000,-0.977000,0.000000,-1.767000,-2.467000,-0.012000
16257,102338.500000,23.875000,-0.008000,-0.003000,-0.979000,0.000000,-0.892000,-0.262000,-0.008000
16270,102251.000000,23.500000,-0.012000,-0.004000,-0.979000,0.000000,-0.892000,0.210000,-0.012000
16282,102390.250000,24.062500,-0.003000,-0.005000,-0.972000,0.000000,-2.196000,0.691000,-0.003000
16295,102409.750000,24.125000,-0.028000,0.000000,-0.979000,0.000000,-0.962000,1.531000,-0.028000
16307,102305.250000,23.750000,-0.016000,-0.004000,-0.978000,0.000000,-0.831000,1.058000,-0.016000
16322,102193.500000,23.312500,-0.010000,-0.005000,-0.978000,0.000000,-4.375000,-1.627000,-0.010000
16335,102374.750000,24.000000,-0.013000,0.000000,-0.977000,0.000000,0.848000,-0.665000,-0.013000
16347,102376.000000,24.000000,-0.013000,0.013000,-0.972000,0.000000,-4.007000,-0.665000,-0.013000
16360,102457.000000,24.312500,-0.007000,-0.012000,-0.975000,0.000000,1.347000,-0.743000,-0.007000
16373,102336.000000,23.875000,-0.004000,-0.007000,-0.975000,0.000000,-1.767000,0.210000,-0.004000
16386,102280.250000,23.625000,-0.012000,-0.003000,-0.977000,0.000000,-0.393000,-1.190000,-0.012000
16399,102466.250000,24.375000,-0.011000,0.009000,-0.974000,0.000000,2.152000,4.252000,-0.011000
16480,102332.750000,23.812500,-0.007000,0.011000,-0.979000,0.000000,1.907000,-1.146000,-0.007000
16493,102379.000000,24.062500,-0.010000,0.003000,-0.978000,0.000000,-4.007000,4.217000,-0.010000
16505,102392.250000,24.062500,-0.008000,0.002000,-0.979000,0.000000,-0.892000,4.252000,-0.008000
16519,102434.000000,24.187500,-0.005000,-0.003000,-0.974000,0.000000,1.785000,4.252000,-0.005000
16531,102373.500000,24.000000,0.010000,-0.011000,-0.977000,0.000000,-0.831000,3.771000,0.010000
16544,102370.750000,24.000000,-0.007000,-0.015000,-0.976000,0.000000,-0.026000,0.210000,-0.007000
16557,102337.500000,23.875000,-0.013000,-0.011000,-0.978000,0.000000,-2.135000,2.931000,-0.013000
16569,102318.500000,23.750000,-0.002000,-0.002000,-0.978000,0.000000,-1.767000,-2.021000,-0.002000
16582,102334.250000,23.812500,-0.005000,-0.006000,-0.976000,0.000000,2.283000,1.058000,-0.005000
16595,102396.250000,24.125000,0.000000,0.004000,-0.977000,0.000000,0.411000,3.806000,0.000000
16608,102405.500000,24.125000,-0.015000,0.014000,-0.973000,0.000000,1.277000,-0.262000,-0.015000
16620,102347.750000,23.875000,-0.003000,-0.001000,-0.976000,0.000000,1.715000,1.531000,-0.003000
16633,102420.750000,24.187500,-0.012000,-0.001000,-0.976000,0.000000,-0.332000,2.056000,-0.012000
16645,102474.000000,24.375000,-0.008000,-0.002000,-0.969000,0.000000,1.408000,-0.708000,-0.008000
16659,102320.250000,23.750000,-0.013000,0.000000,-0.976000,0.000000,0.542000,4.287000,-0.013000
16671,102293.000000,23.687500,-0.003000,-0.013000,-0.974000,0.000000,-1.391000,4.252000,-0.003000
16684,102548.250000,24.687500,-0.010000,-0.001000,-0.985000,0.000000,-1.391000,-2.100000,-0.010000
16696,102374.000000,24.000000,-0.003000,-0.003000,-0.981000,0.000000,-1.767000,1.575000,-0.003000
16709,102354.250000,23.937500,-0.015000,-0.010000,-0.980000,0.000000,0.043000,2.415000,-0.015000
16722,102361.250000,23.937500,-0.016000,-0.013000,-0.982000,0.000000,-4.068000,2.047000,-0.016000
16735,102306.000000,23.687500,-0.012000,-0.015000,-0.977000,0.000000,1.846000,2.852000,-0.012000
16748,102391.250000,24.062500,-0.020000,-0.005000,-0.968000,0.000000,-0.770000,-0.673000,-0.020000
16760,102383.250000,24.000000,-0.023000,0.010000,-0.977000,0.000000,-2.695000,0.656000,-0.023000
16773,102357.250000,23.937500,-0.022000,0.006000,-0.981000,0.000000,0.971000,-1.627000,-0.022000
16785,102382.500000,24.062500,-0.030000,0.001000,-0.992000,0.000000,0.043000,1.093000,-0.030000
16799,102392.750000,24.062500,-0.020000,0.001000,-0.978000,0.000000,1.286000,-1.583000,-0.020000
16811,102426.250000,24.125000,-0.011000,-0.005000,-0.975000,0.000000,-1.260000,-2.056000,-0.011000
16824,102444.500000,24.312500,-0.009000,-0.006000,-0.978000,0.000000,-0.026000,2.896000,-0.009000
16837,102365.500000,23.937500,-0.007000,-0.003000,-0.979000,0.000000,1.277000,2.012000,-0.007000
16849,102351.000000,23.875000,-0.004000,0.000000,-0.982000,0.000000,0.043000,-0.262000,-0.004000
16863,102430.250000,24.187500,-0.004000,0.002000,-0.980000,0.000000,-0.892000,-1.146000,-0.004000
16875,102309.500000,23.750000,-0.004000,0.015000,-0.968000,0.000000,-1.767000,1.977000,-0.004000
16888,102382.750000,24.000000,-0.008000,-0.013000,-0.974000,0.000000,-2.196000,1.933000,-0.008000
16900,102455.000000,24.312500,-0.015000,-0.003000,-0.981000,0.000000,0.542000,-0.227000,-0.015000
16913,102392.000000,24.062500,-0.012000,-0.007000,-0.980000,0.000000,-0.393000,-0.708000,-0.012000
16926,102387.250000,24.000000,-0.028000,-0.007000,-0.974000,0.000000,-0.831000,1.977000,-0.028000
16939,102364.250000,23.937500,-0.020000,-0.008000,-0.981000,0.000000,-4.436000,1.610000,-0.020000
16952,102355.750000,23.937500,-0.018000,-0.002000,-0.980000,0.000000,-3.508000,-0.262000,-0.018000
16964,102462.000000,24.312500,-0.020000,-0.011000,-0.979000,0.000000,-0.393000,-0.708000,-0.020000
16977,102334.750000,23.875000,-0.014000,-0.003000,-0.980000,0.000000,0.910000,0.612000,-0.014000
16990,102397.750000,24.062500,-0.013000,-0.002000,-0.975000,0.000000,-1.330000,-0.227000,-0.013000
17003,102387.750000,24.062500,-0.013000,-0.005000,-0.982000,0.000000,0.472000,3.815000,-0.013000
17015,102410.000000,24.125000,-0.015000,-0.004000,-0.996000,0.000000,-0.831000,1.977000,-0.015000
17028,102390.750000,24.062500,-0.009000,-0.004000,-0.979000,0.000000,-3.132000,3.850000,-0.009000
17041,102385.250000,24.062500,-0.009000,0.000000,-0.978000,0.000000,-2.633000,2.012000,-0.009000
17054,102467.000000,24.375000,-0.009000,-0.003000,-0.978000,0.000000,1.846000,1.575000,-0.009000
17067,102263.000000,23.562500,-0.007000,0.000000,-0.972000,0.000000,-1.697000,-0.306000,-0.007000
17079,102354.750000,23.937500,-0.010000,-0.009000,-0.978000,0.000000,0.848000,-0.227000,-0.010000
17092,102423.250000,24.187500,-0.009000,-0.012000,-0.978000,0.000000,-2.266000,3.377000,-0.009000
17104,102424.750000,24.187500,-0.010000,-0.010000,-0.978000,0.000000,0.910000,2.012000,-0.010000
17117,102323.500000,23.812500,-0.015000,-0.012000,-0.979000,0.000000,-3.010000,-1.627000,-0.015000
17130,102358.250000,23.937500,-0.014000,-0.012000,-0.978000,0.000000,-4.007000,-1.627000,-0.014000
17143,102309.000000,23.750000,-0.016000,-0.006000,-0.974000,0.000000,-0.892000,-0.227000,-0.016000
17156,102475.000000,24.375000,-0.012000,-0.011000,-0.973000,0.000000,-1.767000,5.573000,-0.012000
17168,102378.500000,24.000000,-0.016000,-0.003000,-0.980000,0.000000,-0.393000,0.175000,-0.016000
17181,102357.500000,23.937500,-0.001000,-0.004000,-0.975000,0.000000,2.213000,-1.225000,-0.001000
17194,102408.250000,24.125000,-0.004000,-0.003000,-0.973000,0.000000,-0.831000,-1.181000,-0.004000
17207,102405.750000,24.125000,-0.006000,-0.002000,-0.973000,0.000000,0.043000,4.287000,-0.006000
17288,102348.000000,23.875000,-0.015000,-0.008000,-0.975000,0.000000,-0.332000,-0.262000,-0.015000
17301,102326.250000,23.812500,-0.029000,-0.008000,-0.977000,0.000000,-4.068000,1.575000,-0.029000
17313,102297.750000,23.750000,-0.018000,-0.007000,-0.982000,0.000000,-0.831000,3.736000,-0.018000
17327,102357.500000,23.937500,-0.013000,-0.007000,-0.981000,0.000000,-1.890000,1.058000,-0.013000
17339,102332.250000,23.875000,-0.015000,-0.007000,-0.974000,0.000000,1.408000,-1.146000,-0.015000
17352,102411.750000,24.125000,-0.011000,-0.002000,-0.999000,0.000000,-1.767000,3.342000,-0.011000
17364,102291.500000,23.687500,-0.023000,-0.003000,-0.977000,0.000000,-2.196000,-2.056000,-0.023000
17377,102349.750000,23.875000,-0.010000,-0.003000,-0.979000,0.000000,-2.196000,-1.146000,-0.010000
17390,102308.250000,23.750000,-0.010000,-0.008000,-0.976000,0.000000,-2.266000,-2.065000,-0.010000
17403,102408.500000,24.125000,-0.009000,-0.001000,-0.981000,0.000000,2.152000,-0.183000,-0.009000
17416,102393.000000,24.062500,-0.008000,-0.004000,-0.980000,0.000000,-2.266000,-2.546000,-0.008000
17428,102296.750000,23.687500,-0.009000,-0.004000,-0.978000,0.000000,2.213000,-0.271000,-0.009000
17441,102384.250000,24.062500,-0.008000,-0.002000,-0.978000,0.000000,-3.132000,3.762000,-0.008000
17453,102307.500000,23.750000,-0.011000,-0.015000,-0.977000,0.000000,1.846000,-0.743000,-0.011000
17467,102378.000000,24.000000,-0.025000,-0.001000,-0.980000,0.000000,1.785000,-0.227000,-0.025000
17479,102363.500000,23.937500,0.000000,-0.006000,-0.978000,0.000000,1.347000,-2.065000,0.000000
17492,102342.750000,23.875000,-0.012000,-0.004000,-0.975000,0.000000,-4.007000,0.210000,-0.012000
17504,102350.500000,23.937500,-0.011000,-0.007000,-0.979000,0.000000,1.785000,1.102000,-0.011000
17517,102396.750000,24.125000,-0.008000,-0.005000,-0.978000,0.000000,1.846000,-0.700000,-0.008000
17532,102510.000000,24.500000,-0.013000,-0.003000,-0.992000,0.000000,1.846000,-2.546000,-0.013000
17545,102568.500000,24.750000,-0.026000,-0.007000,-0.974000,0.000000,-0.892000,-1.181000,-0.026000
17557,102351.250000,23.937500,-0.008000,-0.004000,-0.978000,0.000000,-1.330000,-2.030000,-0.008000
17570,102364.000000,24.000000,-0.009000,-0.004000,-0.975000,0.000000,2.152000,2.012000,-0.009000
17582,102342.750000,23.875000,-0.011000,-0.003000,-0.979000,0.000000,-0.831000,-1.190000,-0.011000
17596,102437.750000,24.250000,-0.027000,0.003000,-0.979000,0.000000,1.041000,-4.270000,-0.027000
17608,102373.750000,24.000000,-0.002000,0.001000,-0.980000,0.000000,-3.132000,-1.627000,-0.002000
17621,102372.750000,24.000000,-0.008000,0.002000,-0.975000,0.000000,-0.831000,-0.227000,-0.008000
17633,102288.000000,23.625000,-0.012000,-0.005000,-0.973000,0.000000,-1.767000,0.210000,-0.012000
17646,102309.500000,23.750000,-0.002000,0.000000,-0.981000,0.000000,1.347000,-3.027000,-0.002000
17659,102317.500000,23.812500,-0.015000,-0.010000,-0.988000,0.000000,1.408000,1.977000,-0.015000
17672,102362.500000,24.000000,-0.014000,-0.010000,-0.967000,0.000000,-0.892000,-0.708000,-0.014000
17685,102306.000000,23.750000,-0.001000,-0.007000,-0.976000,0.000000,-1.697000,-1.146000,-0.001000
17697,102360.750000,23.937500,-0.008000,-0.004000,-0.981000,0.000000,-0.455000,3.333000,-0.008000
17710,102406.500000,24.125000,-0.029000,-0.008000,-0.977000,0.000000,-1.697000,1.093000,-0.029000
17723,102317.500000,23.750000,-0.011000,-0.008000,-0.981000,0.000000,0.043000,1.575000,-0.011000
17736,102387.000000,24.062500,-0.010000,-0.006000,-0.975000,0.000000,-3.570000,1.496000,-0.010000
17748,102556.750000,24.750000,-0.003000,-0.008000,-0.977000,0.000000,-0.393000,1.531000,-0.003000
17761,102482.750000,24.437500,-0.026000,-0.007000,-0.986000,0.000000,-3.132000,-4.305000,-0.026000
17774,102475.000000,24.375000,-0.011000,-0.014000,-0.978000,0.000000,-1.330000,4.182000,-0.011000
17786,102289.000000,23.687500,-0.007000,0.012000,-0.980000,0.000000,0.472000,-2.056000,-0.007000
17800,102357.000000,23.937500,-0.016000,0.002000,-0.993000,0.000000,0.043000,-2.030000,-0.016000
17812,102241.500000,23.500000,-0.001000,0.015000,-0.977000,0.000000,-1.767000,-0.227000,-0.001000
17825,102376.000000,24.062500,-0.011000,0.004000,-0.973000,0.000000,-3.132000,2.056000,-0.011000
17837,102386.250000,24.062500,-0.001000,-0.012000,-0.983000,0.000000,-2.196000,-4.340000,-0.001000
17850,102383.000000,24.062500,-0.013000,-0.005000,-0.997000,0.000000,2.213000,-1.102000,-0.013000
17863,102382.750000,24.062500,-0.029000,0.010000,-0.974000,0.000000,-3.570000,1.093000,-0.029000
17876,102364.750000,23.937500,-0.009000,-0.006000,-0.982000,0.000000,-3.570000,6.536000,-0.009000
17889,102410.000000,24.187500,-0.015000,-0.010000,-0.982000,0.000000,1.846000,1.496000,-0.015000
17901,102259.750000,23.562500,-0.007000,-0.008000,-0.976000,0.000000,-0.892000,-1.102000,-0.007000
17914,102277.000000,23.625000,-0.012000,-0.005000,-0.987000,0.000000,-0.892000,6.457000,-0.012000
17927,102375.750000,24.000000,-0.025000,-0.007000,-0.974000,0.000000,-1.330000,0.253000,-0.025000
17940,102275.500000,23.625000,-0.011000,-0.014000,-0.974000,0.000000,1.347000,-0.665000,-0.011000
17952,102246.500000,23.500000,-0.014000,-0.007000,-0.994000,0.000000,-1.330000,-2.467000,-0.014000
17965,102360.750000,24.000000,-0.014000,-0.005000,-0.978000,0.000000,-2.196000,0.210000,-0.014000
17978,102321.000000,23.812500,-0.006000,-0.006000,-0.997000,0.000000,-2.196000,1.531000,-0.006000
17991,102411.000000,24.125000,-0.006000,0.007000,-0.978000,0.000000,-0.393000,-1.146000,-0.006000
18004,102383.750000,24.000000,-0.009000,0.003000,-0.979000,0.000000,-1.330000,-2.030000,-0.009000
18016,102526.500000,24.625000,-0.006000,0.000000,-0.981000,0.000000,-3.132000,2.896000,-0.006000
18098,102399.250000,24.125000,-0.012000,-0.002000,-0.978000,0.000000,1.785000,-1.067000,-0.012000
18110,102399.250000,24.062500,-0.008000,-0.002000,-0.980000,0.000000,-4.436000,6.492000,-0.008000
18123,102374.500000,24.000000,0.000000,-0.007000,-0.975000,0.000000,-1.260000,-1.137000,0.000000
18136,102326.250000,23.812500,-0.013000,-0.010000,-0.975000,0.000000,0.043000,4.252000,-0.013000
18149,102252.750000,23.562500,-0.009000,0.005000,-0.976000,0.000000,-2.633000,-2.467000,-0.009000
18161,102502.500000,24.500000,-0.008000,-0.015000,-0.977000,0.000000,-2.695000,-4.270000,-0.008000
18174,102404.500000,24.125000,-0.009000,-0.004000,-0.977000,0.000000,-1.828000,4.296000,-0.009000
18187,102385.000000,24.062500,-0.010000,-0.007000,-0.980000,0.000000,-1.767000,-0.262000,-0.010000
18200,102367.750000,23.937500,-0.004000,-0.008000,-0.979000,0.000000,0.043000,0.647000,-0.004000
18213,102340.750000,23.875000,-0.010000,-0.006000,-0.979000,0.000000,0.105000,0.210000,-0.010000
18225,102408.750000,24.125000,-0.010000,-0.005000,-0.973000,0.000000,3.150000,1.977000,-0.010000
18238,102385.000000,24.062500,0.000000,-0.014000,-0.982000,0.000000,-0.455000,-3.386000,0.000000
18250,102340.250000,23.812500,-0.012000,-0.005000,-0.976000,0.000000,-1.330000,1.058000,-0.012000
18264,102311.000000,23.812500,-0.009000,-0.015000,-0.974000,0.000000,0.971000,-1.583000,-0.009000
18276,102297.500000,23.687500,-0.028000,-0.001000,-0.976000,0.000000,-4.068000,1.487000,-0.028000
18289,102219.750000,23.375000,-0.024000,-0.007000,-0.982000,0.000000,1.408000,-1.146000,-0.024000
18302,102423.500000,24.187500,-0.015000,0.000000,-0.983000,0.000000,-0.892000,-0.227000,-0.015000
18314,102362.250000,23.937500,-0.009000,-0.005000,-0.975000,0.000000,-1.391000,-1.146000,-0.009000
18328,102456.250000,24.375000,-0.023000,-0.011000,-0.976000,0.000000,0.472000,-3.867000,-0.023000
18340,102274.250000,23.625000,-0.002000,0.004000,-0.957000,0.000000,-1.391000,-0.227000,-0.002000
18353,102443.750000,24.250000,-0.030000,-0.013000,-0.990000,0.000000,-2.135000,-1.627000,-0.030000
18365,102349.250000,23.937500,-0.005000,-0.012000,-0.973000,0.000000,-5.871000,0.175000,-0.005000
18378,102330.250000,23.812500,-0.014000,-0.003000,-0.975000,0.000000,-2.633000,0.612000,-0.014000
18390,102357.000000,23.937500,-0.003000,-0.006000,-0.975000,0.000000,-2.266000,-0.708000,-0.003000
18403,102218.000000,23.437500,-0.006000,-0.004000,-0.975000,0.000000,-0.455000,0.253000,-0.006000
18415,102256.000000,23.562500,-0.005000,-0.005000,-0.979000,0.000000,-4.436000,4.296000,-0.005000
18428,102363.750000,24.000000,-0.021000,-0.002000,-0.979000,0.000000,-5.311000,-1.583000,-0.021000
18440,102375.000000,24.000000,-0.004000,-0.004000,-0.976000,0.000000,0.043000,0.612000,-0.004000
18453,102360.000000,23.937500,-0.002000,-0.001000,-0.977000,0.000000,-1.268000,-1.102000,-0.002000
18466,102468.750000,24.375000,-0.001000,-0.002000,-0.977000,0.000000,0.910000,-4.340000,-0.001000
18479,102404.000000,24.125000,-0.026000,-0.005000,-0.980000,0.000000,-0.157000,3.850000,-0.026000
18492,102403.000000,24.125000,-0.028000,-0.003000,-0.979000,0.000000,-1.697000,0.131000,-0.028000
18504,102315.500000,23.750000,0.000000,0.000000,-0.981000,0.000000,-0.393000,-3.386000,0.000000
18517,102312.500000,23.750000,-0.001000,-0.003000,-0.978000,0.000000,2.213000,-2.021000,-0.001000
18530,102412.750000,24.187500,-0.006000,-0.003000,-0.978000,0.000000,0.472000,-3.377000,-0.006000
18543,102330.750000,23.875000,-0.009000,-0.001000,-0.982000,0.000000,0.043000,-0.262000,-0.009000
18555,102381.250000,24.062500,0.003000,-0.004000,-0.975000,0.000000,-0.892000,-3.342000,0.003000
18568,102381.750000,24.000000,-0.012000,-0.003000,-0.969000,0.000000,-2.695000,2.931000,-0.012000
18581,102425.250000,24.187500,-0.002000,-0.003000,-0.981000,0.000000,2.213000,-1.137000,-0.002000
18594,102375.750000,24.062500,-0.002000,-0.002000,-0.977000,0.000000,0.043000,-0.708000,-0.002000
18607,102385.250000,24.062500,-0.014000,-0.008000,-0.979000,0.000000,-0.026000,2.975000,-0.014000
18619,102365.000000,24.000000,-0.004000,-0.006000,-0.981000,0.000000,-0.455000,6.413000,-0.004000
18632,102295.500000,23.750000,-0.014000,0.000000,-0.977000,0.000000,-2.196000,-2.581000,-0.014000
18644,102380.750000,24.000000,-0.012000,-0.002000,-0.976000,0.000000,0.910000,1.093000,-0.012000
18659,102481.250000,24.437500,-0.008000,-0.005000,-0.981000,0.000000,-2.196000,-1.627000,-0.008000
18672,102440.000000,24.187500,-0.014000,-0.003000,-0.976000,0.000000,1.347000,-4.305000,-0.014000
18684,102365.750000,23.937500,-0.014000,0.012000,-0.981000,0.000000,1.846000,4.208000,-0.014000
18697,102339.750000,23.875000,-0.007000,0.014000,-0.981000,0.000000,-1.330000,0.140000,-0.007000
18710,102348.000000,23.937500,-0.011000,-0.015000,-0.975000,0.000000,-3.570000,2.896000,-0.011000
18722,102262.750000,23.562500,-0.013000,-0.002000,-0.979000,0.000000,1.347000,2.012000,-0.013000
18736,102278.500000,23.625000,-0.024000,0.000000,-0.976000,0.000000,-0.393000,-2.467000,-0.024000
18748,102289.750000,23.750000,-0.012000,-0.002000,-0.980000,0.000000,0.971000,2.012000,-0.012000
18761,102381.000000,24.000000,0.000000,-0.003000,-0.974000,0.000000,-4.506000,4.217000,0.000000
18773,102474.500000,24.375000,-0.005000,-0.004000,-0.979000,0.000000,-2.135000,-2.948000,-0.005000
18786,102421.750000,24.187500,-0.010000,-0.001000,-0.989000,0.000000,0.472000,0.656000,-0.010000
18799,102454.000000,24.375000,-0.011000,-0.010000,-0.975000,0.000000,-4.007000,4.252000,-0.011000
18812,102326.750000,23.812500,-0.012000,-0.005000,-0.977000,0.000000,-0.393000,-1.146000,-0.012000
18825,102388.250000,24.062500,-0.004000,-0.004000,-0.979000,0.000000,3.150000,1.137000,-0.004000
18916,102371.250000,24.000000,-0.003000,0.000000,-0.972000,0.000000,4.086000,-2.948000,-0.003000
18929,102384.000000,24.062500,-0.009000,0.000000,-0.981000,0.000000,-4.130000,3.377000,-0.009000
18942,102364.750000,23.937500,-0.013000,0.011000,-0.969000,0.000000,-3.001000,-1.102000,-0.013000
18955,102379.000000,24.062500,-0.008000,-0.002000,-0.956000,0.000000,-0.463000,3.333000,-0.008000
18967,102314.750000,23.812500,-0.004000,-0.001000,-0.974000,0.000000,-4.375000,1.933000,-0.004000
18980,102440.750000,24.250000,-0.006000,-0.014000,-0.980000,0.000000,-0.455000,3.377000,-0.006000
18992,102334.250000,23.875000,-0.030000,-0.004000,-0.979000,0.000000,-3.132000,1.977000,-0.030000
19006,102229.250000,23.437500,-0.013000,-0.007000,-0.981000,0.000000,-1.767000,-2.065000,-0.013000
19018,102328.000000,23.875000,-0.001000,-0.003000,-0.968000,0.000000,0.472000,2.012000,-0.001000
19031,102361.500000,23.937500,-0.029000,-0.002000,-0.977000,0.000000,2.213000,1.058000,-0.029000
19043,102466.000000,24.312500,-0.018000,-0.002000,-0.983000,0.000000,-0.831000,2.012000,-0.018000
19056,102319.500000,23.812500,-0.013000,-0.002000,-0.997000,0.000000,-0.455000,1.531000,-0.013000
19069,102408.500000,24.125000,-0.016000,-0.003000,-0.976000,0.000000,0.910000,0.175000,-0.016000
19082,102323.750000,23.812500,-0.027000,-0.006000,-0.977000,0.000000,0.350000,2.012000,-0.027000
19095,102343.750000,23.875000,-0.012000,-0.003000,-0.981000,0.000000,-1.268000,-2.065000,-0.012000
19107,102323.750000,23.812500,-0.013000,-0.013000,-0.971000,0.000000,1.715000,1.977000,-0.013000
19120,102387.750000,24.062500,-0.014000,-0.003000,-0.978000,0.000000,-0.892000,-0.708000,-0.014000
19132,102399.500000,24.125000,-0.012000,0.001000,-0.981000,0.000000,0.043000,0.175000,-0.012000
19146,102409.500000,24.125000,-0.007000,-0.002000,-0.980000,0.000000,1.408000,-2.948000,-0.007000
19158,102371.000000,24.000000,-0.006000,0.000000,-0.981000,0.000000,-0.455000,-1.102000,-0.006000
19171,102374.750000,24.062500,-0.008000,-0.011000,-0.973000,0.000000,-0.892000,1.977000,-0.008000
19184,102335.250000,23.875000,-0.011000,-0.005000,-0.980000,0.000000,1.277000,-2.065000,-0.011000
19196,102371.750000,24.062500,-0.007000,-0.014000,-0.977000,0.000000,-1.828000,-1.146000,-0.007000
19210,102391.000000,24.062500,-0.010000,-0.008000,-0.996000,0.000000,1.408000,-1.583000,-0.010000
19222,102324.000000,23.812500,-0.011000,-0.007000,-0.981000,0.000000,0.043000,3.377000,-0.011000
19235,102274.500000,23.687500,-0.008000,-0.007000,-0.981000,0.000000,-0.525000,3.377000,-0.008000
19247,102328.500000,23.812500,-0.013000,-0.010000,-0.979000,0.000000,2.213000,1.496000,-0.013000
19260,102446.750000,24.250000,-0.009000,-0.004000,-0.974000,0.000000,-2.266000,0.621000,-0.009000
19273,102357.750000,23.937500,-0.028000,-0.005000,-0.980000,0.000000,1.408000,-4.261000,-0.028000
19286,102416.250000,24.187500,-0.013000,-0.006000,-0.975000,0.000000,-0.455000,1.093000,-0.013000
19298,102378.250000,24.062500,-0.012000,-0.001000,-0.980000,0.000000,-0.332000,-0.665000,-0.012000
19311,102376.000000,24.000000,-0.009000,-0.006000,-0.978000,0.000000,-6.676000,-2.065000,-0.009000
19324,102312.750000,23.750000,-0.006000,-0.005000,-0.977000,0.000000,-1.697000,1.531000,-0.006000
19336,102340.500000,23.875000,-0.013000,-0.014000,-0.977000,0.000000,-3.071000,1.540000,-0.013000
19350,102348.000000,23.937500,-0.009000,-0.001000,-0.983000,0.000000,-3.071000,0.218000,-0.009000
19362,102295.000000,23.687500,-0.010000,-0.001000,-0.979000,0.000000,-1.330000,-0.262000,-0.010000
19375,102283.000000,23.625000,0.000000,0.001000,-0.974000,0.000000,-0.455000,2.896000,0.000000
19387,102329.500000,23.875000,-0.010000,-0.001000,-0.979000,0.000000,1.715000,-0.708000,-0.010000
19400,102481.250000,24.437500,-0.003000,0.003000,-0.982000,0.000000,-0.026000,1.531000,-0.003000
19413,102387.000000,24.062500,-0.005000,-0.013000,-0.978000,0.000000,-0.026000,-1.627000,-0.005000
19426,102334.750000,23.875000,-0.006000,-0.014000,-0.973000,0.000000,0.910000,3.736000,-0.006000
19439,102365.500000,24.000000,-0.024000,-0.003000,-0.970000,0.000000,-0.831000,-0.708000,-0.024000
19451,102338.000000,23.875000,-0.012000,-0.006000,-0.979000,0.000000,-1.767000,-0.708000,-0.012000
19464,102411.500000,24.125000,-0.027000,-0.010000,-0.995000,0.000000,-3.508000,0.253000,-0.027000
19477,102377.500000,24.062500,-0.016000,-0.011000,-0.976000,0.000000,2.283000,0.175000,-0.016000
19490,102269.750000,23.625000,-0.015000,-0.011000,-0.993000,0.000000,0.980000,2.896000,-0.015000
19503,102443.750000,24.250000,-0.031000,-0.008000,-0.976000,0.000000,3.281000,-0.297000,-0.031000
19515,102379.750000,24.000000,-0.016000,0.000000,-0.977000,0.000000,0.778000,-0.743000,-0.016000
19528,102425.250000,24.187500,-0.026000,-0.002000,-0.978000,0.000000,-4.007000,6.055000,-0.026000
19541,102354.750000,23.937500,-0.005000,0.011000,-0.979000,0.000000,-3.132000,0.210000,-0.005000
19554,102438.750000,24.250000,-0.005000,0.000000,-0.981000,0.000000,0.472000,0.210000,-0.005000
19566,102439.000000,24.312500,-0.021000,-0.007000,-0.979000,0.000000,-4.007000,1.575000,-0.021000
19579,102423.250000,24.187500,-0.009000,-0.002000,-0.976000,0.000000,0.411000,-2.030000,-0.009000
19591,102335.000000,23.875000,-0.008000,-0.003000,-0.978000,0.000000,-1.330000,4.252000,-0.008000
19604,102300.500000,23.750000,-0.010000,-0.012000,-0.981000,0.000000,-1.330000,1.093000,-0.010000
19617,102222.500000,23.437500,-0.005000,0.005000,-0.978000,0.000000,0.910000,1.093000,-0.005000
19630,102313.000000,23.750000,-0.025000,0.014000,-0.977000,0.000000,-3.570000,2.493000,-0.025000
19643,102367.000000,24.000000,-0.015000,-0.012000,-0.980000,0.000000,-2.196000,-1.181000,-0.015000
19734,102410.500000,24.125000,-0.011000,-0.011000,-0.979000,0.000000,0.542000,-3.421000,-0.011000
19747,102340.500000,23.875000,-0.008000,-0.006000,-0.976000,0.000000,-2.266000,6.492000,-0.008000
19760,102337.000000,23.875000,-0.009000,-0.006000,-0.999000,0.000000,-1.198000,0.656000,-0.009000
19773,102397.000000,24.062500,-0.013000,-0.002000,-0.982000,0.000000,-1.767000,-0.262000,-0.013000
19786,102306.500000,23.750000,-0.007000,-0.011000,-0.981000,0.000000,0.848000,-0.665000,-0.007000
19798,102388.500000,24.062500,-0.009000,-0.013000,-0.975000,0.000000,1.846000,1.531000,-0.009000
19811,102357.000000,23.937500,0.000000,0.011000,-0.976000,0.000000,-0.831000,1.137000,0.000000
19824,102367.000000,24.000000,-0.011000,0.011000,-0.982000,0.000000,2.213000,2.450000,-0.011000
19837,102261.500000,23.562500,-0.003000,0.012000,-0.978000,0.000000,-1.767000,-0.227000,-0.003000
19849,102333.250000,23.875000,-0.011000,0.011000,-0.978000,0.000000,0.043000,1.531000,-0.011000
19862,102327.250000,23.812500,-0.013000,0.003000,-0.994000,0.000000,-3.202000,2.896000,-0.013000
19874,102393.500000,24.062500,-0.008000,0.014000,-0.976000,0.000000,2.345000,-2.065000,-0.008000
19889,102417.250000,24.187500,-0.010000,-0.005000,-0.977000,0.000000,-1.391000,-2.108000,-0.010000
19902,102591.000000,24.875000,0.000000,-0.004000,-0.982000,0.000000,1.408000,1.531000,0.000000
19915,102335.750000,23.875000,-0.011000,-0.012000,-0.974000,0.000000,1.785000,0.612000,-0.011000
19927,102331.250000,23.875000,-0.013000,-0.008000,-0.980000,0.000000,-0.455000,-1.181000,-0.013000
19940,102336.750000,23.812500,-0.013000,-0.002000,-0.978000,0.000000,-2.196000,-1.583000,-0.013000
19952,102396.250000,24.125000,-0.012000,-0.015000,-0.975000,0.000000,0.910000,0.210000,-0.012000
19966,102405.250000,24.125000,-0.012000,-0.002000,-0.968000,0.000000,0.472000,-3.421000,-0.012000
19978,102334.250000,23.875000,-0.010000,-0.014000,-0.980000,0.000000,1.785000,0.183000,-0.010000
19991,102516.500000,24.562500,-0.012000,-0.006000,-0.980000,0.000000,-0.892000,-1.662000,-0.012000
20003,102276.250000,23.625000,-0.010000,-0.003000,-0.979000,0.000000,-0.393000,0.210000,-0.010000
20016,102372.750000,24.0000000000,-1.330000,-1.627000,-0.012000
35392,102407.000000,24.125000,-0.011000,-0.001000,-0.970000,0.000000,0.105000,-1.627000,-0.011000
35405,102328.750000,23.812500,-0.007000,-0.004000,-0.982000,0.000000,-0.393000,-1.951000,-0.007000
35417,102262.000000,23.562500,-0.028000,-0.004000,-0.981000,0.000000,-1.330000,1.496000,-0.028000
35430,102362.250000,23.937500,-0.015000,-0.014000,-0.973000,0.000000,-3.202000,-1.181000,-0.015000
35443,102419.000000,24.187500,0.000000,-0.007000,-0.974000,0.000000,-2.196000,0.175000,0.000000
35456,102348.500000,23.875000,-0.010000,0.000000,-0.981000,0.000000,-0.332000,1.128000,-0.010000
35468,102374.500000,24.000000,-0.028000,-0.002000,-0.981000,0.000000,-0.892000,1.058000,-0.028000
35481,102493.000000,24.437500,-0.010000,0.013000,-0.974000,0.000000,-4.068000,-1.583000,-0.010000
35494,102338.750000,23.875000,-0.011000,-0.004000,-0.991000,0.000000,-3.570000,-2.065000,-0.011000
35506,102395.750000,24.062500,-0.014000,-0.006000,-0.982000,0.000000,-0.026000,0.612000,-0.014000
35519,102413.250000,24.125000,-0.012000,-0.001000,-0.978000,0.000000,-1.391000,-1.627000,-0.012000
35532,102296.000000,23.687500,-0.003000,-0.005000,-0.977000,0.000000,-2.196000,1.093000,-0.003000
35545,102349.000000,23.937500,-0.011000,-0.005000,-0.979000,0.000000,0.043000,1.531000,-0.011000
35557,102303.000000,23.750000,-0.012000,-0.005000,-0.976000,0.000000,-2.633000,3.736000,-0.012000
35570,102277.000000,23.625000,-0.011000,-0.008000,-0.973000,0.000000,0.043000,-0.665000,-0.011000
35582,102423.750000,24.187500,-0.011000,0.000000,-0.983000,0.000000,-1.330000,1.531000,-0.011000
35596,102389.000000,24.062500,-0.011000,-0.005000,-0.979000,0.000000,-1.260000,-0.218000,-0.011000
35608,102461.750000,24.375000,-0.009000,0.000000,-0.974000,0.000000,0.848000,-1.618000,-0.009000
35621,102312.250000,23.750000,-0.008000,0.012000,-0.979000,0.000000,2.213000,-1.627000,-0.008000
35634,102334.500000,23.875000,-0.023000,-0.015000,-0.979000,0.000000,-0.463000,-2.467000,-0.023000
35646,102304.750000,23.750000,-0.010000,0.000000,-0.980000,0.000000,0.472000,2.012000,-0.010000
35660,102344.000000,23.875000,-0.008000,-0.005000,-0.979000,0.000000,-1.767000,1.933000,-0.008000
35672,102297.000000,23.687500,0.000000,0.012000,-0.977000,0.000000,-1.767000,-0.227000,0.000000
35685,102393.750000,24.062500,-0.012000,0.012000,-0.974000,0.000000,2.213000,1.977000,-0.012000
35697,102452.000000,24.250000,-0.029000,-0.003000,-0.982000,0.000000,-3.202000,3.771000,-0.029000
35710,102284.500000,23.687500,-0.008000,-0.001000,-0.978000,0.000000,-2.135000,-1.627000,-0.008000
35723,102492.250000,24.500000,-0.008000,-0.004000,-0.980000,0.000000,0.043000,-2.030000,-0.008000
35736,102417.000000,24.187500,-0.008000,-0.002000,-0.983000,0.000000,0.043000,-2.030000,-0.008000
35748,102339.250000,23.875000,-0.014000,-0.003000,-0.979000,0.000000,-2.196000,1.531000,-0.014000
35761,102338.500000,23.875000,-0.010000,-0.003000,-0.976000,0.000000,1.347000,1.968000,-0.010000
35774,102201.000000,23.375000,-0.009000,-0.005000,-0.975000,0.000000,-1.391000,2.896000,-0.009000
35786,102424.500000,24.187500,0.000000,-0.004000,-0.982000,0.000000,-3.132000,-0.227000,0.000000
35799,102519.500000,24.562500,-0.003000,-0.005000,-0.976000,0.000000,0.043000,-2.030000,-0.003000
35812,102330.750000,23.812500,-0.010000,-0.008000,-0.979000,0.000000,-1.697000,2.415000,-0.010000
35825,102380.500000,24.000000,-0.007000,0.000000,-0.970000,0.000000,-1.330000,-1.592000,-0.007000
35837,102218.750000,23.375000,-0.008000,-0.004000,-0.972000,0.000000,1.715000,0.210000,-0.008000
35850,102416.250000,24.187500,-0.010000,0.000000,-0.979000,0.000000,-4.436000,4.173000,-0.010000
35863,102355.000000,23.937500,-0.010000,-0.001000,-0.978000,0.000000,-1.268000,1.015000,-0.010000
35876,102292.250000,23.687500,-0.013000,0.010000,-0.975000,0.000000,-0.026000,3.815000,-0.013000
35888,102346.250000,23.875000,-0.030000,-0.015000,-0.979000,0.000000,1.408000,-0.262000,-0.030000
35901,102407.500000,24.125000,-0.009000,0.000000,-0.979000,0.000000,1.846000,4.252000,-0.009000
35914,102421.250000,24.125000,-0.012000,-0.003000,-0.977000,0.000000,1.776000,4.252000,-0.012000
35927,102389.750000,24.062500,-0.012000,-0.006000,-0.982000,0.000000,-0.892000,3.333000,-0.012000
35940,102445.500000,24.250000,-0.012000,-0.014000,-0.981000,0.000000,-4.436000,1.050000,-0.012000
35952,102401.000000,24.125000,0.000000,-0.009000,-0.979000,0.000000,-3.202000,1.531000,0.000000
35965,102275.250000,23.625000,-0.008000,-0.007000,-0.981000,0.000000,0.043000,-0.306000,-0.008000
35977,102247.500000,23.500000,-0.008000,-0.002000,-0.978000,0.000000,2.283000,2.012000,-0.008000
35991,102238.750000,23.500000,-0.012000,-0.007000,-0.979000,0.000000,-1.697000,-3.823000,-0.012000
36003,102400.500000,24.125000,-0.009000,-0.004000,-0.975000,0.000000,-0.393000,-2.030000,-0.009000
36016,102407.500000,24.125000,-0.013000,-0.005000,-0.979000,0.000000,-3.631000,3.333000,-0.013000
36028,102429.500000,24.187500,0.000000,-0.004000,-0.982000,0.000000,-1.330000,-1.662000,0.000000
36041,102275.750000,23.625000,-0.008000,0.012000,-0.975000,0.000000,-2.695000,1.093000,-0.008000
36053,102299.500000,23.750000,-0.014000,-0.013000,-0.977000,0.000000,0.603000,-0.743000,-0.014000
36067,102445.000000,24.250000,-0.009000,0.000000,-0.977000,0.000000,-2.572000,-1.146000,-0.009000
36079,102405.250000,24.125000,-0.012000,0.007000,-0.972000,0.000000,0.910000,0.175000,-0.012000
36092,102422.000000,24.125000,-0.009000,-0.001000,-0.976000,0.000000,-1.767000,4.217000,-0.009000
36105,102306.250000,23.750000,-0.014000,-0.006000,-0.979000,0.000000,-4.007000,1.496000,-0.014000
36117,102362.000000,23.937500,-0.006000,-0.007000,-0.972000,0.000000,1.347000,-2.511000,-0.006000
36131,102401.000000,24.062500,-0.027000,-0.004000,-0.980000,0.000000,0.043000,1.137000,-0.027000
36143,102360.750000,23.937500,-0.012000,-0.004000,-0.976000,0.000000,1.715000,1.496000,-0.012000
36156,102286.500000,23.687500,-0.010000,-0.003000,-0.973000,0.000000,0.411000,1.968000,-0.010000
36168,102277.250000,23.687500,-0.008000,-0.004000,-0.977000,0.000000,0.043000,0.691000,-0.008000
36181,102318.000000,23.812500,-0.007000,-0.003000,-0.995000,0.000000,1.408000,-1.592000,-0.007000
36194,102378.000000,24.000000,-0.007000,-0.004000,-0.979000,0.000000,-1.828000,-1.181000,-0.007000
36207,102384.250000,24.062500,-0.008000,-0.006000,-0.980000,0.000000,-0.892000,1.531000,-0.008000
36220,102336.500000,23.875000,-0.013000,-0.006000,-0.992000,0.000000,1.408000,0.612000,-0.013000
36232,102449.500000,24.250000,-0.008000,-0.002000,-0.969000,0.000000,-4.068000,4.733000,-0.008000
36245,102428.750000,24.187500,-0.009000,-0.007000,-0.968000,0.000000,-0.892000,2.415000,-0.009000
36260,102170.500000,23.187500,-0.011000,-0.012000,-0.980000,0.000000,-0.393000,-6.580000,-0.011000
36272,102396.750000,24.062500,-0.015000,-0.004000,-0.982000,0.000000,-0.892000,-0.227000,-0.015000
36285,102390.000000,24.000000,-0.021000,-0.001000,-0.968000,0.000000,-1.391000,2.012000,-0.021000
36297,102381.250000,23.937500,-0.013000,0.000000,-0.973000,0.000000,-1.330000,2.415000,-0.013000
36310,102329.500000,23.875000,-0.012000,-0.014000,-0.997000,0.000000,3.587000,-0.743000,-0.012000
36323,102409.250000,24.125000,-0.013000,0.014000,-0.977000,0.000000,0.472000,-0.708000,-0.013000
36336,102409.750000,24.125000,-0.010000,0.000000,-0.978000,0.000000,0.542000,-3.386000,-0.010000
36348,102473.750000,24.375000,-0.009000,-0.013000,-0.969000,0.000000,-0.026000,3.298000,-0.009000
36361,102340.750000,23.875000,-0.009000,-0.005000,-0.974000,0.000000,-2.196000,1.977000,-0.009000
36374,102376.750000,24.000000,-0.012000,-0.001000,-0.993000,0.000000,2.213000,-2.030000,-0.012000
36386,102360.000000,23.937500,-0.028000,-0.008000,-0.978000,0.000000,-0.892000,4.296000,-0.028000
36400,102394.750000,24.062500,-0.010000,-0.008000,-0.975000,0.000000,-2.633000,2.852000,-0.010000
36412,102390.500000,24.062500,-0.008000,-0.002000,-0.976000,0.000000,-0.525000,3.850000,-0.008000
36425,102329.000000,23.812500,-0.011000,-0.005000,-0.993000,0.000000,1.347000,0.140000,-0.011000
36437,102436.500000,24.250000,-0.010000,-0.010000,-0.989000,0.000000,0.105000,-5.223000,-0.010000
36529,102351.250000,23.937500,-0.015000,0.005000,-0.978000,0.000000,3.648000,-0.262000,-0.015000
36542,102426.250000,24.187500,-0.006000,0.012000,-0.979000,0.000000,-1.268000,-2.948000,-0.006000
36555,102395.750000,24.062500,-0.013000,0.013000,-0.977000,0.000000,0.971000,4.252000,-0.013000
36567,102282.500000,23.625000,-0.011000,-0.004000,-0.981000,0.000000,2.213000,4.252000,-0.011000
36580,102429.250000,24.187500,0.000000,-0.004000,-0.981000,0.000000,-0.262000,-6.545000,0.000000
36593,102392.250000,24.062500,-0.009000,-0.006000,-0.976000,0.000000,-2.196000,-2.870000,-0.009000
36606,102363.500000,23.937500,-0.007000,-0.007000,-0.968000,0.000000,-3.631000,3.333000,-0.007000
36619,102351.750000,23.875000,-0.013000,-0.012000,-0.980000,0.000000,-4.068000,2.808000,-0.013000
36631,102170.750000,23.187500,-0.003000,-0.009000,-0.978000,0.000000,1.785000,1.531000,-0.003000
36644,102415.750000,24.125000,-0.006000,-0.007000,-0.974000,0.000000,0.848000,1.137000,-0.006000
36656,102303.250000,23.750000,-0.014000,-0.001000,-0.982000,0.000000,-3.570000,-1.583000,-0.014000
36670,102292.500000,23.687500,-0.012000,-0.008000,-0.968000,0.000000,-0.393000,-1.583000,-0.012000
36682,102269.500000,23.625000,-0.009000,-0.002000,-0.974000,0.000000,-0.026000,4.655000,-0.009000
36695,102351.000000,23.875000,-0.010000,-0.005000,-0.977000,0.000000,1.715000,1.933000,-0.010000
36707,102372.000000,24.000000,-0.007000,-0.006000,-0.975000,0.000000,-0.892000,-1.627000,-0.007000
36720,102384.000000,24.062500,-0.026000,0.012000,-0.979000,0.000000,1.408000,2.012000,-0.026000
36733,102325.500000,23.750000,-0.012000,-0.012000,-0.981000,0.000000,-1.828000,1.531000,-0.012000
36746,102340.250000,23.812500,-0.013000,-0.009000,-0.974000,0.000000,1.408000,2.450000,-0.013000
36758,102301.250000,23.687500,-0.009000,-0.015000,-0.976000,0.000000,-1.461000,2.056000,-0.009000
36771,102321.000000,23.750000,-0.010000,-0.006000,-0.976000,0.000000,0.472000,-0.227000,-0.010000
36784,102326.000000,23.812500,-0.010000,-0.007000,-0.977000,0.000000,0.411000,1.093000,-0.010000
36796,102349.500000,23.875000,-0.006000,-0.005000,-0.979000,0.000000,1.846000,1.531000,-0.006000
36810,102382.250000,24.000000,0.000000,-0.006000,-0.978000,0.000000,-1.828000,1.093000,0.000000
36822,102473.000000,24.375000,-0.022000,-0.002000,-0.981000,0.000000,0.910000,0.691000,-0.022000
36835,102424.250000,24.187500,-0.009000,-0.001000,-0.968000,0.000000,-2.695000,4.252000,-0.009000
36847,102237.000000,23.437500,-0.010000,-0.001000,-0.968000,0.000000,0.043000,-0.306000,-0.010000
36860,102430.500000,24.187500,-0.010000,-0.001000,-0.982000,0.000000,-3.570000,-3.788000,-0.010000
36873,102336.500000,23.875000,-0.009000,-0.001000,-0.980000,0.000000,-0.393000,-0.743000,-0.009000
36886,102357.500000,23.875000,-0.014000,0.000000,-0.980000,0.000000,1.907000,0.175000,-0.014000
36898,102335.750000,23.812500,-0.014000,0.000000,-0.970000,0.000000,0.910000,0.726000,-0.014000
36911,102432.750000,24.187500,-0.011000,-0.001000,-0.982000,0.000000,-1.330000,-3.867000,-0.011000
36924,102352.250000,23.937500,-0.011000,0.008000,-0.973000,0.000000,1.408000,-0.673000,-0.011000
36937,102381.000000,24.000000,-0.024000,-0.002000,-0.983000,0.000000,0.910000,-2.467000,-0.024000
36950,102426.250000,24.187500,0.000000,-0.007000,-0.978000,0.000000,-1.330000,1.137000,0.000000
36962,102351.500000,23.875000,-0.023000,-0.001000,-0.989000,0.000000,-1.828000,-2.030000,-0.023000
36975,102430.000000,24.187500,-0.009000,-0.007000,-0.975000,0.000000,2.152000,6.457000,-0.009000
36987,102320.250000,23.750000,-0.013000,-0.005000,-0.969000,0.000000,-1.828000,-1.583000,-0.013000
37000,102418.000000,24.187500,-0.010000,-0.008000,-0.980000,0.000000,-4.506000,-4.305000,-0.010000
37013,102415.500000,24.125000,-0.006000,-0.014000,-0.981000,0.000000,1.408000,0.647000,-0.006000
37026,102279.500000,23.687500,-0.011000,-0.001000,-0.979000,0.000000,-0.393000,6.606000,-0.011000
37108,102344.000000,23.875000,-0.004000,-0.006000,-0.968000,0.000000,0.910000,-2.065000,-0.004000
37120,102195.000000,23.312500,-0.014000,-0.002000,-0.977000,0.000000,-3.508000,3.333000,-0.014000
37133,102391.750000,24.062500,-0.014000,-0.006000,-0.976000,0.000000,-1.697000,0.140000,-0.014000
37146,102468.250000,24.312500,-0.013000,-0.005000,-0.976000,0.000000,2.345000,-1.181000,-0.013000
37159,102393.750000,24.062500,-0.011000,-0.005000,-0.980000,0.000000,0.043000,4.252000,-0.011000
37171,102280.250000,23.562500,-0.013000,-0.004000,-0.993000,0.000000,0.472000,1.093000,-0.013000
37184,102380.750000,24.000000,-0.012000,-0.002000,-0.975000,0.000000,-0.892000,-1.548000,-0.012000
37196,102441.500000,24.187500,-0.010000,-0.002000,-0.982000,0.000000,-2.572000,-1.627000,-0.010000
37210,102337.750000,23.812500,-0.014000,-0.014000,-0.976000,0.000000,-1.268000,1.977000,-0.014000
37222,102420.000000,24.125000,0.000000,-0.003000,-0.976000,0.000000,-0.455000,1.977000,0.000000
37235,102372.000000,23.937500,-0.009000,-0.007000,-0.973000,0.000000,1.408000,-2.021000,-0.009000
37247,102361.750000,23.937500,-0.011000,-0.002000,-0.976000,0.000000,-1.330000,-0.708000,-0.011000
37260,102386.500000,24.000000,-0.006000,-0.004000,-0.975000,0.000000,-0.087000,-0.700000,-0.006000
37273,102327.500000,23.750000,-0.011000,-0.002000,-0.983000,0.000000,0.848000,3.377000,-0.011000
37286,102344.250000,23.875000,-0.023000,-0.003000,-0.979000,0.000000,1.347000,1.461000,-0.023000
37299,102471.000000,24.375000,-0.005000,-0.001000,-0.978000,0.000000,-1.330000,1.531000,-0.005000
37311,102281.500000,23.625000,-0.010000,-0.005000,-0.982000,0.000000,-0.026000,2.012000,-0.010000
37324,102325.000000,23.812500,-0.013000,-0.006000,-0.978000,0.000000,0.542000,-0.708000,-0.013000
37336,102377.750000,24.000000,-0.028000,-0.003000,-0.978000,0.000000,1.478000,1.093000,-0.028000
37350,102322.000000,23.750000,-0.008000,-0.008000,-0.978000,0.000000,1.478000,-1.146000,-0.008000
37362,102318.000000,23.750000,-0.007000,-0.003000,-0.994000,0.000000,-0.026000,-1.592000,-0.007000
37375,102396.750000,24.000000,-0.003000,-0.002000,-0.990000,0.000000,-2.695000,-2.030000,-0.003000
37388,102499.250000,24.500000,-0.010000,-0.005000,-0.989000,0.000000,-0.393000,0.691000,-0.010000
37400,102382.000000,24.000000,-0.010000,-0.008000,-0.982000,0.000000,-4.436000,0.577000,-0.010000
37414,102285.000000,23.625000,0.000000,-0.005000,-0.976000,0.000000,-3.132000,-1.618000,0.000000
37426,102326.500000,23.812500,-0.023000,-0.002000,-0.977000,0.000000,-0.831000,-0.218000,-0.023000
37439,102404.000000,24.062500,-0.010000,0.001000,-0.982000,0.000000,-1.767000,1.977000,-0.010000
37451,102428.250000,24.187500,0.000000,-0.002000,-0.983000,0.000000,-0.892000,-0.708000,0.000000
37464,102294.000000,23.687500,-0.008000,-0.004000,-0.976000,0.000000,-1.268000,-0.665000,-0.008000
37479,102429.750000,24.187500,-0.011000,-0.013000,-0.981000,0.000000,-0.831000,-6.545000,-0.011000
37491,102406.500000,24.125000,-0.015000,-0.003000,-0.978000,0.000000,0.472000,-0.262000,-0.015000
37504,102357.250000,23.937500,-0.012000,-0.002000,-0.975000,0.000000,0.411000,1.540000,-0.012000
37517,102403.250000,24.062500,-0.012000,-0.007000,-0.981000,0.000000,1.846000,-1.146000,-0.012000
37529,102433.250000,24.187500,-0.016000,-0.007000,-0.981000,0.000000,1.347000,-0.306000,-0.016000
37542,102496.000000,24.437500,-0.009000,0.000000,-0.975000,0.000000,-1.198000,-1.627000,-0.009000
37555,102414.250000,24.062500,-0.013000,-0.006000,-0.979000,0.000000,-0.455000,3.815000,-0.013000
37568,102307.250000,23.687500,-0.013000,-0.001000,-0.978000,0.000000,0.043000,-2.065000,-0.013000
37580,102278.250000,23.562500,-0.010000,-0.002000,-0.979000,0.000000,-4.007000,-2.030000,-0.010000
37593,102318.750000,23.750000,-0.009000,-0.004000,-0.974000,0.000000,-1.828000,2.012000,-0.009000
37605,102345.500000,23.812500,-0.013000,-0.004000,-0.977000,0.000000,-1.260000,1.496000,-0.013000
37618,102332.500000,23.750000,-0.011000,-0.005000,-0.968000,0.000000,-2.633000,-1.618000,-0.011000
37630,102346.500000,23.875000,-0.002000,-0.002000,-0.980000,0.000000,-1.391000,0.175000,-0.002000
37643,102441.750000,24.250000,-0.015000,-0.003000,-0.968000,0.000000,-0.892000,-1.662000,-0.015000
37655,102535.000000,24.562500,-0.010000,0.012000,-0.980000,0.000000,-0.026000,2.012000,-0.010000
37668,102459.750000,24.312500,-0.008000,0.000000,-0.968000,0.000000,-1.330000,-0.271000,-0.008000
37681,102453.250000,24.250000,-0.010000,-0.003000,-0.982000,0.000000,-1.767000,-0.708000,-0.010000
37694,102351.250000,23.875000,-0.006000,-0.001000,-0.980000,0.000000,0.472000,-3.386000,-0.006000
37707,102290.000000,23.625000,-0.012000,-0.004000,-0.978000,0.000000,-0.892000,3.412000,-0.012000
37719,102432.500000,24.187500,-0.008000,-0.005000,-0.978000,0.000000,-3.202000,-1.583000,-0.008000
37732,102409.000000,24.125000,-0.013000,-0.002000,-0.979000,0.000000,3.587000,-0.341000,-0.013000
37745,102339.750000,23.812500,-0.012000,-0.001000,-0.976000,0.000000,0.971000,0.612000,-0.012000
37758,102384.500000,24.062500,-0.009000,-0.002000,-0.977000,0.000000,-1.828000,1.575000,-0.009000
37770,102371.000000,23.937500,-0.015000,0.012000,-0.981000,0.000000,0.105000,-0.743000,-0.015000
37783,102447.750000,24.250000,-0.008000,-0.001000,-0.979000,0.000000,0.910000,-2.030000,-0.008000
37795,102292.750000,23.687500,-0.008000,0.002000,-0.969000,0.000000,-1.767000,1.977000,-0.008000
37809,102369.250000,23.937500,-0.013000,-0.005000,-0.980000,0.000000,1.540000,1.093000,-0.013000
37821,102368.000000,23.937500,-0.031000,-0.015000,-0.973000,0.000000,-4.436000,0.175000,-0.031000
37834,102311.750000,23.687500,-0.006000,-0.006000,-0.984000,0.000000,0.971000,-2.030000,-0.006000
37847,102402.750000,24.062500,-0.009000,-0.003000,-0.972000,0.000000,-0.892000,2.931000,-0.009000
37859,102353.500000,23.875000,-0.011000,-0.004000,-0.998000,0.000000,1.785000,-0.262000,-0.011000
37872,102297.500000,23.687500,-0.013000,-0.008000,-0.980000,0.000000,-0.026000,0.210000,-0.013000
37885,102312.750000,23.750000,-0.014000,-0.002000,-0.984000,0.000000,-0.892000,0.175000,-0.014000
37898,102359.500000,23.937500,-0.016000,-0.004000,-0.980000,0.000000,-0.892000,-0.708000,-0.016000
37910,102343.000000,23.812500,-0.009000,-0.003000,-0.979000,0.000000,-1.268000,0.210000,-0.009000
37923,102348.750000,23.875000,-0.011000,-0.004000,-0.983000,0.000000,-1.268000,0.210000,-0.011000
37935,102339.250000,23.812500,-0.010000,-0.005000,-0.968000,0.000000,1.785000,0.210000,-0.010000
37949,102377.500000,24.000000,-0.009000,-0.015000,-0.978000,0.000000,-1.636000,-0.306000,-0.009000
38040,102323.000000,23.750000,-0.011000,-0.007000,-0.975000,0.000000,3.718000,-2.983000,-0.011000
38053,102337.250000,23.812500,-0.014000,-0.001000,-0.980000,0.000000,-0.455000,1.207000,-0.014000
38066,102359.750000,23.875000,-0.009000,-0.015000,-0.980000,0.000000,-2.196000,0.140000,-0.009000
38078,102366.000000,23.937500,-0.007000,0.001000,-0.980000,0.000000,1.846000,-4.270000,-0.007000
38091,102421.750000,24.125000,-0.010000,-0.007000,-0.975000,0.000000,1.846000,-0.708000,-0.010000
38104,102299.250000,23.625000,-0.014000,-0.004000,-0.979000,0.000000,-4.935000,0.253000,-0.014000
38117,102319.250000,23.750000,-0.009000,0.000000,-0.970000,0.000000,-5.810000,-1.627000,-0.009000
38129,102478.500000,24.312500,-0.014000,-0.002000,-0.979000,0.000000,-0.831000,-0.708000,-0.014000
38142,102374.000000,23.937500,-0.012000,-0.013000,-0.977000,0.000000,-0.332000,-3.386000,-0.012000
38155,102185.000000,23.250000,-0.010000,-0.003000,-0.976000,0.000000,-2.135000,-2.905000,-0.010000
38168,102389.750000,24.000000,-0.007000,-0.006000,-0.976000,0.000000,-0.892000,-0.708000,-0.007000
38180,102455.500000,24.250000,-0.009000,0.013000,-0.975000,0.000000,-1.330000,1.933000,-0.009000
38193,102323.000000,23.750000,0.000000,-0.002000,-0.979000,0.000000,-4.436000,-1.627000,0.000000
38205,102459.750000,24.250000,-0.002000,-0.003000,-0.983000,0.000000,-1.697000,-3.351000,-0.002000
38219,102515.250000,24.500000,-0.012000,-0.004000,-0.979000,0.000000,1.408000,-2.030000,-0.012000
38231,102254.500000,23.437500,-0.001000,-0.004000,-0.976000,0.000000,-4.007000,2.012000,-0.001000
38244,102254.500000,23.437500,-0.009000,-0.002000,-0.976000,0.000000,3.211000,-0.708000,-0.009000
38257,102305.250000,23.625000,-0.012000,-0.004000,-0.979000,0.000000,-0.962000,-2.030000,-0.012000
38269,102381.250000,24.000000,-0.008000,-0.015000,-0.974000,0.000000,3.587000,1.531000,-0.008000
38282,102367.500000,23.937500,-0.019000,-0.007000,-0.982000,0.000000,-1.023000,2.887000,-0.019000
38294,102389.000000,24.062500,-0.013000,-0.002000,-0.980000,0.000000,0.472000,3.815000,-0.013000
38306,102378.000000,23.937500,-0.004000,-0.005000,-0.968000,0.000000,-2.135000,0.612000,-0.004000
38319,102337.000000,23.812500,-0.010000,0.010000,-0.974000,0.000000,-0.455000,-0.262000,-0.010000
38332,102401.500000,24.062500,-0.011000,-0.005000,-0.982000,0.000000,-1.330000,-2.030000,-0.011000
38344,102338.000000,23.812500,-0.007000,-0.004000,-0.978000,0.000000,1.846000,0.175000,-0.007000
38357,102369.250000,23.937500,-0.012000,-0.007000,-0.979000,0.000000,-1.767000,-0.665000,-0.012000
38370,102412.500000,24.062500,-0.025000,-0.014000,-0.977000,0.000000,-1.391000,-4.235000,-0.025000
38383,102461.250000,24.250000,-0.011000,-0.002000,-0.971000,0.000000,-0.831000,3.771000,-0.011000
38395,102414.500000,24.062500,-0.012000,-0.003000,-0.979000,0.000000,0.472000,-4.340000,-0.012000
38408,102329.500000,23.750000,0.000000,-0.004000,-0.980000,0.000000,-0.393000,0.210000,0.000000
38421,102530.000000,24.562500,-0.015000,-0.004000,-0.972000,0.000000,2.213000,0.210000,-0.015000
38434,102409.000000,24.062500,-0.012000,-0.013000,-0.975000,0.000000,-2.695000,5.652000,-0.012000
38446,102302.250000,23.687500,-0.013000,-0.005000,-0.972000,0.000000,-0.831000,2.852000,-0.013000
38459,102279.250000,23.562500,-0.027000,-0.005000,-0.978000,0.000000,0.848000,2.450000,-0.027000
38472,102432.000000,24.125000,-0.014000,-0.006000,-0.979000,0.000000,1.347000,-1.583000,-0.014000
38485,102438.000000,24.187500,-0.010000,0.000000,-0.976000,0.000000,0.043000,1.977000,-0.010000
38498,102360.500000,23.875000,-0.010000,0.000000,-0.980000,0.000000,-0.455000,1.977000,-0.010000
38510,102389.500000,24.000000,-0.015000,-0.007000,-0.980000,0.000000,1.785000,-3.867000,-0.015000
38523,102237.250000,23.437500,-0.017000,-0.004000,-0.983000,0.000000,-4.007000,2.012000,-0.017000
38535,102384.500000,24.000000,-0.010000,0.000000,-0.981000,0.000000,-1.767000,0.175000,-0.010000
38549,102415.750000,24.125000,-0.014000,-0.002000,-0.977000,0.000000,0.105000,1.531000,-0.014000
38561,102297.000000,23.625000,-0.002000,-0.005000,-0.977000,0.000000,-3.570000,0.175000,-0.002000
38574,102395.000000,24.062500,-0.008000,0.000000,-0.976000,0.000000,0.472000,-1.225000,-0.008000
38586,102318.000000,23.687500,-0.015000,-0.002000,-0.976000,0.000000,-2.695000,-1.583000,-0.015000
38599,102255.000000,23.437500,-0.010000,0.000000,-0.968000,0.000000,-2.196000,-0.708000,-0.010000
38612,102421.000000,24.062500,-0.027000,-0.005000,-0.975000,0.000000,-4.007000,-0.708000,-0.027000
38627,102457.750000,24.312500,-0.015000,-0.005000,-0.971000,0.000000,1.785000,-0.708000,-0.015000
38639,102416.250000,24.125000,-0.013000,-0.007000,-0.981000,0.000000,0.043000,1.933000,-0.013000
38652,102423.000000,24.125000,-0.007000,-0.015000,-0.981000,0.000000,-3.631000,1.137000,-0.007000
38664,102367.500000,23.875000,-0.003000,-0.008000,-0.981000,0.000000,1.785000,0.691000,-0.003000
38677,102276.000000,23.562500,-0.028000,-0.003000,-0.983000,0.000000,-1.767000,1.496000,-0.028000
38690,102427.750000,24.125000,-0.009000,-0.013000,-0.981000,0.000000,-2.196000,-0.183000,-0.009000
38703,102354.750000,23.812500,-0.010000,0.000000,-0.979000,0.000000,-1.268000,-2.905000,-0.010000
38715,102205.750000,23.312500,-0.012000,0.000000,-0.975000,0.000000,0.043000,0.253000,-0.012000
38728,102454.250000,24.187500,-0.014000,-0.002000,-0.980000,0.000000,-2.196000,-0.665000,-0.014000
38741,102279.000000,23.562500,-0.008000,-0.005000,-0.980000,0.000000,-1.767000,1.531000,-0.008000
38754,102414.000000,24.125000,-0.010000,-0.004000,-0.977000,0.000000,1.408000,-2.030000,-0.010000
38767,102328.250000,23.750000,-0.010000,-0.003000,-0.990000,0.000000,-4.007000,0.210000,-0.010000
38779,102260.750000,23.500000,-0.001000,-0.005000,-0.981000,0.000000,-1.767000,1.093000,-0.001000
38792,102112.250000,22.937500,-0.006000,-0.002000,-0.983000,0.000000,-6.247000,3.333000,-0.006000
38873,102298.750000,23.625000,-0.014000,-0.003000,-0.975000,0.000000,-0.831000,-1.548000,-0.014000
38887,102415.250000,24.125000,0.000000,-0.003000,-0.979000,0.000000,0.341000,1.566000,0.000000
38899,102247.750000,23.437500,-0.015000,-0.001000,-0.976000,0.000000,-4.068000,1.128000,-0.015000
38912,102303.000000,23.625000,-0.006000,-0.006000,-0.971000,0.000000,0.043000,-1.225000,-0.006000
38924,102378.250000,23.937500,-0.010000,-0.007000,-0.978000,0.000000,-2.196000,-2.467000,-0.010000
38937,102321.500000,23.687500,-0.010000,-0.002000,-0.979000,0.000000,-5.311000,-0.708000,-0.010000
38950,102430.750000,24.125000,-0.012000,-0.003000,-0.977000,0.000000,-1.268000,0.656000,-0.012000
38963,102409.750000,24.062500,-0.008000,-0.006000,-0.973000,0.000000,-1.828000,-0.227000,-0.008000
38976,102473.750000,24.312500,-0.007000,-0.006000,-0.981000,0.000000,2.213000,0.656000,-0.007000
38988,102398.250000,24.062500,0.000000,-0.008000,-0.982000,0.000000,0.043000,0.210000,0.000000
39001,102366.000000,23.875000,-0.001000,-0.004000,-0.977000,0.000000,-2.633000,-0.262000,-0.001000
39013,102346.250000,23.812500,-0.010000,-0.004000,-0.977000,0.000000,-0.455000,1.093000,-0.010000
39027,102450.250000,24.250000,-0.003000,-0.003000,-0.979000,0.000000,2.345000,-1.067000,-0.003000
39039,102272.500000,23.562500,-0.013000,-0.005000,-0.974000,0.000000,-3.570000,2.887000,-0.013000
39052,102328.500000,23.750000,-0.014000,-0.001000,-0.974000,0.000000,0.472000,-1.146000,-0.014000
39064,102370.250000,23.875000,-0.007000,-0.001000,-0.979000,0.000000,-2.703000,1.566000,-0.007000
39077,102409.750000,24.062500,-0.011000,-0.014000,-0.979000,0.000000,-0.026000,-0.271000,-0.011000
39090,102285.000000,23.562500,-0.011000,-0.005000,-0.980000,0.000000,-1.330000,2.047000,-0.011000
39103,102405.500000,24.062500,-0.008000,0.011000,-0.979000,0.000000,-3.570000,2.493000,-0.008000
39116,102384.000000,24.000000,-0.010000,-0.002000,-0.974000,0.000000,-3.937000,-3.788000,-0.010000
39128,102346.500000,23.875000,-0.007000,-0.008000,-0.982000,0.000000,-0.831000,3.815000,-0.007000
39141,102235.000000,23.375000,0.000000,0.000000,-0.975000,0.000000,1.846000,-2.030000,0.000000
39154,102427.000000,24.125000,-0.009000,-0.007000,-0.974000,0.000000,0.166000,-2.030000,-0.009000
39167,102371.500000,23.875000,-0.012000,-0.004000,-0.971000,0.000000,-1.828000,3.412000,-0.012000
39179,102401.750000,24.062500,-0.010000,-0.002000,-0.977000,0.000000,-0.892000,-2.100000,-0.010000
39192,102354.000000,23.875000,-0.002000,0.014000,-0.978000,0.000000,0.848000,1.531000,-0.002000
39204,102241.750000,23.437500,-0.009000,-0.005000,-0.997000,0.000000,-2.695000,4.252000,-0.009000
39217,102370.750000,23.875000,-0.009000,-0.006000,-0.978000,0.000000,-1.268000,-0.752000,-0.009000
39230,102424.500000,24.062500,-0.025000,-0.003000,-0.978000,0.000000,1.041000,-4.305000,-0.025000
39243,102314.500000,23.687500,-0.013000,-0.003000,-0.976000,0.000000,-4.068000,-3.386000,-0.013000
39256,102410.500000,24.062500,-0.009000,0.000000,-0.977000,0.000000,0.910000,-1.592000,-0.009000
39268,102234.750000,23.375000,-0.023000,0.013000,-0.977000,0.000000,-0.892000,1.566000,-0.023000
39281,102385.750000,23.937500,-0.002000,0.009000,-0.973000,0.000000,1.907000,0.210000,-0.002000
39294,102291.250000,23.562500,-0.013000,-0.003000,-0.978000,0.000000,-0.761000,-1.146000,-0.013000
39307,102372.250000,23.937500,-0.009000,-0.008000,-0.978000,0.000000,-1.767000,2.931000,-0.009000
39319,102339.250000,23.812500,-0.011000,-0.001000,-0.977000,0.000000,-3.202000,1.531000,-0.011000
39332,102471.750000,24.250000,-0.012000,-0.003000,-0.977000,0.000000,0.542000,-1.627000,-0.012000
39344,102342.000000,23.812500,-0.005000,-0.004000,-0.981000,0.000000,-0.892000,-0.262000,-0.005000
39358,102285.250000,23.562500,-0.030000,-0.004000,-0.977000,0.000000,-3.132000,2.012000,-0.030000
39370,102506.750000,24.437500,0.000000,-0.006000,-0.979000,0.000000,-0.026000,1.575000,0.000000
39383,102368.250000,23.937500,-0.012000,-0.001000,-0.982000,0.000000,-4.068000,-0.306000,-0.012000
39396,102340.000000,23.812500,-0.013000,-0.002000,-0.975000,0.000000,-2.196000,2.450000,-0.013000
39408,102389.750000,24.000000,-0.008000,-0.005000,-0.973000,0.000000,-0.026000,-3.386000,-0.008000
39422,102432.500000,24.125000,-0.014000,0.011000,-0.973000,0.000000,0.910000,0.140000,-0.014000
39434,102430.000000,24.125000,-0.024000,-0.002000,-0.974000,0.000000,-2.196000,2.012000,-0.024000
39447,102352.250000,23.875000,-0.013000,-0.014000,-0.975000,0.000000,-1.828000,1.566000,-0.013000
39459,102329.500000,23.750000,-0.013000,-0.005000,-0.977000,0.000000,-3.508000,6.492000,-0.013000
39472,102408.750000,24.062500,-0.003000,-0.005000,-0.975000,0.000000,-1.391000,2.852000,-0.003000
39564,102396.250000,24.000000,-0.012000,-0.002000,-0.974000,0.000000,-3.570000,-1.146000,-0.012000
39576,102279.250000,23.562500,-0.007000,-0.007000,-0.977000,0.000000,-0.455000,1.977000,-0.007000
39589,102182.500000,23.250000,-0.010000,-0.007000,-0.978000,0.000000,0.910000,-1.076000,-0.010000
39601,102406.000000,24.062500,-0.028000,0.000000,-0.973000,0.000000,-4.436000,-1.995000,-0.028000
39614,102369.000000,23.875000,-0.012000,-0.005000,-0.974000,0.000000,-0.393000,3.333000,-0.012000
39627,102291.500000,23.562500,-0.008000,-0.006000,-0.975000,0.000000,1.907000,1.968000,-0.008000
39640,102330.500000,23.687500,-0.030000,-0.014000,-0.973000,0.000000,1.715000,-0.271000,-0.030000
39653,102330.000000,23.812500,-0.010000,0.010000,-0.979000,0.000000,1.846000,-3.421000,-0.010000
39665,102323.000000,23.750000,-0.010000,-0.013000,-0.982000,0.000000,-1.767000,-2.065000,-0.010000
39678,102413.750000,24.125000,-0.007000,-0.002000,-0.977000,0.000000,-1.330000,-2.030000,-0.007000
39690,102353.500000,23.812500,-0.009000,-0.003000,-0.980000,0.000000,-0.831000,1.531000,-0.009000
39704,102326.500000,23.750000,-0.009000,-0.003000,-0.974000,0.000000,-2.196000,-0.708000,-0.009000
39716,102379.000000,23.937500,-0.010000,-0.004000,-0.972000,0.000000,0.411000,0.245000,-0.010000
39729,102338.000000,23.750000,-0.010000,-0.007000,-0.978000,0.000000,0.043000,-3.911000,-0.010000
39742,102270.000000,23.500000,-0.008000,-0.006000,-0.972000,0.000000,0.971000,1.531000,-0.008000
39754,102401.000000,24.062500,-0.007000,0.000000,-0.978000,0.000000,0.542000,0.210000,-0.007000
39767,102388.750000,24.000000,-0.010000,-0.015000,-0.980000,0.000000,-0.831000,4.252000,-0.010000
39780,102329.500000,23.750000,-0.013000,-0.001000,-0.991000,0.000000,4.147000,-3.867000,-0.013000
39793,102456.250000,24.250000,-0.006000,-0.001000,-0.978000,0.000000,-0.087000,3.815000,-0.006000
39805,102347.750000,23.875000,-0.011000,0.009000,-0.982000,0.000000,-3.071000,-2.108000,-0.011000
39818,102395.250000,24.000000,-0.015000,0.006000,-0.976000,0.000000,1.715000,-2.030000,-0.015000
39833,102400.000000,24.000000,-0.011000,-0.004000,-0.978000,0.000000,-1.697000,1.050000,-0.011000
39845,102413.750000,24.125000,-0.014000,-0.001000,-0.978000,0.000000,1.347000,-2.913000,-0.014000
39858,102410.250000,24.062500,-0.029000,-0.006000,-0.982000,0.000000,-0.892000,1.128000,-0.029000
39870,102428.000000,24.125000,-0.012000,-0.005000,-0.978000,0.000000,-1.767000,3.727000,-0.012000
39883,102416.250000,24.062500,-0.010000,-0.006000,-0.977000,0.000000,-1.330000,1.898000,-0.010000
39896,102247.750000,23.437500,-0.010000,0.010000,-0.981000,0.000000,-0.892000,-0.665000,-0.010000
39909,102237.750000,23.375000,-0.006000,-0.003000,-0.993000,0.000000,0.472000,-0.665000,-0.006000
39922,102478.750000,24.312500,-0.010000,-0.003000,-0.978000,0.000000,0.542000,1.093000,-0.010000
39934,102375.250000,23.937500,-0.011000,-0.013000,-0.979000,0.000000,-0.026000,-3.867000,-0.011000
39947,102369.500000,23.937500,-0.008000,-0.001000,-0.981000,0.000000,-1.330000,0.612000,-0.008000
39959,102452.250000,24.250000,-0.012000,0.000000,-0.980000,0.000000,-0.463000,1.531000,-0.012000
39973,102354.750000,23.937500,-0.012000,-0.005000,-0.977000,0.000000,-1.391000,1.933000,-0.012000
39985,102383.750000,23.937500,-0.012000,-0.004000,-0.975000,0.000000,-1.198000,1.093000,-0.012000
39998,102413.250000,24.125000,-0.011000,-0.004000,-0.980000,0.000000,-1.767000,0.175000,-0.011000
40010,102359.250000,23.875000,-0.012000,-0.014000,-0.977000,0.000000,1.347000,0.210000,-0.012000
40023,102412.500000,24.062500,-0.008000,0.014000,-0.980000,0.000000,-4.436000,-0.752000,-0.008000
40036,102328.000000,23.750000,-0.004000,-0.002000,-0.972000,0.000000,-1.330000,3.333000,-0.004000
40049,102398.000000,24.062500,-0.010000,-0.001000,-0.978000,0.000000,-0.892000,-1.190000,-0.010000
40062,102384.500000,23.937500,-0.011000,-0.005000,-0.976000,0.000000,2.213000,0.691000,-0.011000
40074,102317.250000,23.687500,-0.013000,-0.005000,-0.983000,0.000000,-0.892000,-0.752000,-0.013000
40087,102375.500000,23.937500,-0.029000,-0.005000,-0.976000,0.000000,-0.393000,1.575000,-0.029000
40100,102370.500000,23.875000,-0.013000,-0.015000,-0.976000,0.000000,-1.330000,-1.583000,-0.013000
40113,102269.000000,23.500000,-0.010000,0.010000,-0.977000,0.000000,0.411000,3.403000,-0.010000
40125,102338.500000,23.812500,-0.013000,0.000000,-0.976000,0.000000,-0.026000,-2.511000,-0.013000
40138,102308.750000,23.687500,-0.009000,-0.004000,-0.976000,0.000000,-1.767000,-2.913000,-0.009000
40150,102372.000000,23.937500,-0.012000,-0.002000,-0.980000,0.000000,-0.455000,1.093000,-0.012000
40163,102389.750000,24.062500,-0.008000,-0.001000,-0.974000,0.000000,-4.436000,0.647000,-0.008000
40176,102521.500000,24.500000,-0.017000,-0.001000,-0.976000,0.000000,0.043000,4.655000,-0.017000
40189,102343.500000,23.812500,-0.015000,-0.006000,-0.974000,0.000000,-1.767000,0.647000,-0.015000
40201,102390.000000,24.000000,-0.012000,-0.004000,-0.976000,0.000000,-0.892000,-2.065000,-0.012000
40214,102403.000000,24.062500,-0.012000,-0.001000,-0.973000,0.000000,0.971000,-2.065000,-0.012000
40227,102365.750000,23.937500,-0.007000,-0.009000,-0.977000,0.000000,-0.026000,-1.146000,-0.007000
40240,102505.500000,24.437500,-0.008000,-0.007000,-0.977000,0.000000,2.213000,-0.630000,-0.008000
40253,102415.500000,24.125000,-0.007000,-0.002000,-0.977000,0.000000,1.785000,1.610000,-0.007000
40265,102319.500000,23.750000,-0.008000,-0.005000,-0.982000,0.000000,2.213000,-0.752000,-0.008000
40278,102280.750000,23.562500,-0.012000,-0.003000,-0.977000,0.000000,2.152000,-1.592000,-0.012000
40290,102360.000000,23.937500,-0.012000,-0.005000,-0.973000,0.000000,-1.268000,4.252000,-0.012000
40304,102403.250000,24.062500,-0.015000,-0.003000,-0.991000,0.000000,1.408000,-2.030000,-0.015000
40316,102455.250000,24.250000,-0.004000,-0.007000,-0.979000,0.000000,-3.631000,3.771000,-0.004000
40329,102383.500000,24.000000,-0.012000,0.000000,-0.975000,0.000000,0.472000,-0.306000,-0.012000
40342,102423.500000,24.187500,-0.012000,-0.005000,-0.973000,0.000000,1.277000,-0.708000,-0.012000
40354,102349.250000,23.812500,-0.010000,-0.006000,-0.977000,0.000000,0.043000,-0.271000,-0.010000
40367,102379.000000,23.875000,-0.009000,-0.005000,-0.978000,0.000000,0.472000,0.210000,-0.009000
40380,102407.000000,24.062500,-0.008000,-0.004000,-0.980000,0.000000,-0.892000,4.252000,-0.008000
40393,102371.000000,23.937500,-0.011000,-0.015000,-0.982000,0.000000,-3.202000,0.175000,-0.011000
40405,102378.500000,23.937500,-0.006000,-0.009000,-0.974000,0.000000,2.213000,0.656000,-0.006000
40418,102247.750000,23.437500,-0.012000,0.013000,-0.972000,0.000000,0.472000,0.691000,-0.012000
40431,102395.750000,24.062500,-0.001000,-0.003000,-0.976000,0.000000,4.086000,-3.307000,-0.001000
40444,102419.250000,24.125000,-0.015000,-0.003000,-0.979000,0.000000,0.043000,1.531000,-0.015000
40456,102357.250000,23.875000,-0.010000,-0.001000,-0.976000,0.000000,-2.196000,0.210000,-0.010000
40469,102365.250000,23.875000,-0.014000,-0.005000,-0.968000,0.000000,0.910000,-1.627000,-0.014000
40481,102302.500000,23.687500,-0.010000,-0.005000,-0.979000,0.000000,-2.196000,1.128000,-0.010000
40494,102371.500000,23.937500,-0.011000,-0.003000,-0.974000,0.000000,-0.892000,-1.146000,-0.011000
40507,102340.250000,23.750000,-0.011000,-0.004000,-0.976000,0.000000,1.408000,4.252000,-0.011000
40520,102362.000000,23.937500,-0.011000,-0.003000,-0.980000,0.000000,-0.892000,2.047000,-0.011000
40533,102340.000000,23.812500,-0.014000,-0.001000,-0.972000,0.000000,1.776000,-2.590000,-0.014000
40545,102383.500000,24.000000,0.000000,-0.006000,-0.981000,0.000000,-1.268000,-1.146000,0.000000
40558,102418.000000,24.125000,-0.009000,-0.004000,-0.979000,0.000000,0.971000,-2.100000,-0.009000
40640,102438.000000,24.187500,0.000000,0.011000,-0.968000,0.000000,-3.071000,2.415000,0.000000
40653,102401.250000,24.000000,0.000000,0.000000,-0.979000,0.000000,-4.436000,-0.227000,0.000000
40666,102366.750000,23.937500,-0.004000,-0.007000,-0.971000,0.000000,1.408000,1.531000,-0.004000
40678,102268.750000,23.500000,-0.015000,-0.006000,-0.980000,0.000000,0.472000,-2.983000,-0.015000
40691,102332.000000,23.750000,-0.009000,-0.004000,-0.978000,0.000000,-4.506000,4.296000,-0.009000
40704,102564.000000,24.687500,-0.009000,-0.002000,-0.978000,0.000000,-1.828000,0.245000,-0.009000
40717,102309.500000,23.687500,-0.011000,-0.002000,-0.972000,0.000000,2.213000,0.568000,-0.011000
40729,102277.000000,23.562500,-0.010000,-0.006000,-0.981000,0.000000,-3.508000,3.771000,-0.010000
40742,102430.250000,24.187500,-0.003000,-0.002000,-0.980000,0.000000,-4.068000,2.852000,-0.003000
40754,102463.000000,24.312500,-0.012000,-0.001000,-0.981000,0.000000,0.910000,-1.181000,-0.012000
40768,102365.000000,23.937500,-0.009000,-0.002000,-0.968000,0.000000,-1.828000,6.055000,-0.009000
40780,102235.000000,23.375000,-0.010000,0.011000,-0.979000,0.000000,-0.831000,-1.190000,-0.010000
40793,102406.500000,24.062500,-0.009000,-0.002000,-0.979000,0.000000,-4.007000,0.175000,-0.009000
40806,102382.500000,23.937500,-0.027000,-0.003000,-0.978000,0.000000,0.043000,-0.306000,-0.027000
40818,102347.250000,23.875000,-0.013000,-0.001000,-0.981000,0.000000,-0.463000,-0.708000,-0.013000
40831,102328.250000,23.750000,-0.008000,0.012000,-0.981000,0.000000,-3.631000,3.815000,-0.008000
40844,102390.250000,24.000000,-0.006000,-0.005000,-0.977000,0.000000,-2.196000,0.656000,-0.006000
40857,102355.750000,23.875000,-0.014000,-0.008000,-0.977000,0.000000,2.213000,-0.673000,-0.014000
40869,102425.250000,24.125000,-0.012000,-0.005000,-0.980000,0.000000,-1.697000,0.612000,-0.012000
40882,102370.000000,23.937500,-0.006000,0.000000,-0.978000,0.000000,0.043000,-1.592000,-0.006000
40895,102354.500000,23.875000,-0.013000,-0.003000,-0.979000,0.000000,-1.268000,0.647000,-0.013000
40908,102368.750000,23.875000,-0.005000,0.000000,-0.980000,0.000000,2.283000,-1.583000,-0.005000
40920,102392.750000,24.000000,-0.014000,-0.008000,-0.974000,0.000000,-2.695000,6.055000,-0.014000
40933,102361.000000,23.875000,-0.010000,-0.001000,-0.976000,0.000000,-3.010000,-0.271000,-0.010000
40946,102318.750000,23.750000,-0.012000,-0.002000,-0.975000,0.000000,-1.330000,0.647000,-0.012000
40958,102281.250000,23.562500,-0.009000,0.010000,-0.977000,0.000000,0.910000,1.531000,-0.009000
40973,102476.500000,24.312500,-0.011000,-0.004000,-0.975000,0.000000,-1.198000,-2.065000,-0.011000
41065,102365.000000,23.937500,-0.006000,0.000000,-0.974000,0.000000,-1.697000,-3.430000,-0.006000
41077,102311.750000,23.687500,-0.013000,-0.007000,-0.981000,0.000000,1.277000,2.485000,-0.013000
41090,102391.500000,24.000000,-0.009000,-0.006000,-0.974000,0.000000,-2.765000,4.690000,-0.009000
41102,102320.000000,23.750000,-0.014000,-0.001000,-0.978000,0.000000,-1.828000,3.815000,-0.014000
41116,102477.250000,24.375000,-0.029000,0.000000,-0.979000,0.000000,0.043000,1.015000,-0.029000
41128,102332.500000,23.812500,-0.011000,-0.009000,-0.978000,0.000000,0.472000,3.333000,-0.011000
41141,102363.000000,23.875000,-0.010000,-0.002000,-0.977000,0.000000,2.712000,-1.627000,-0.010000
41154,102376.750000,23.937500,-0.007000,-0.004000,-0.980000,0.000000,-3.132000,3.368000,-0.007000
41166,102439.250000,24.125000,-0.012000,-0.001000,-0.981000,0.000000,0.341000,-2.065000,-0.012000
41179,102363.750000,23.875000,-0.010000,-0.001000,-0.978000,0.000000,-0.332000,-2.030000,-0.010000
41192,102392.000000,24.000000,-0.010000,-0.004000,-0.977000,0.000000,-1.067000,-1.592000,-0.010000
41205,102298.500000,23.625000,-0.011000,-0.005000,-0.968000,0.000000,-3.570000,-1.146000,-0.011000
41217,102466.500000,24.312500,-0.009000,-0.002000,-0.983000,0.000000,0.411000,-0.752000,-0.009000
41230,102377.750000,23.937500,-0.015000,-0.002000,-0.976000,0.000000,0.411000,0.210000,-0.015000
41243,102393.500000,24.000000,-0.014000,0.000000,-0.977000,0.000000,0.910000,0.656000,-0.014000
41256,102326.750000,23.750000,-0.012000,-0.004000,-0.972000,0.000000,-0.393000,-1.583000,-0.012000
41268,102471.250000,24.312500,-0.013000,-0.002000,-0.982000,0.000000,0.848000,2.931000,-0.013000
41281,102340.500000,23.812500,-0.013000,0.012000,-0.982000,0.000000,0.971000,-1.627000,-0.013000
41294,102331.500000,23.812500,-0.010000,-0.002000,-0.979000,0.000000,-0.026000,0.647000,-0.010000
41306,102403.500000,24.062500,-0.010000,-0.004000,-0.972000,0.000000,-0.026000,2.415000,-0.010000
41319,102470.000000,24.312500,-0.011000,-0.006000,-0.982000,0.000000,0.971000,-0.271000,-0.011000
41332,102412.250000,24.125000,-0.009000,-0.003000,-0.972000,0.000000,-3.071000,2.415000,-0.009000
41345,102332.000000,23.812500,-0.026000,-0.002000,-0.981000,0.000000,0.542000,-2.948000,-0.026000
41357,102330.250000,23.750000,-0.011000,-0.004000,-0.980000,0.000000,1.408000,1.128000,-0.011000
41370,102347.500000,23.812500,-0.014000,-0.003000,-0.980000,0.000000,-0.831000,3.377000,-0.014000
41383,102319.250000,23.687500,-0.008000,-0.001000,-0.972000,0.000000,2.712000,1.093000,-0.008000
41396,102270.000000,23.500000,-0.010000,-0.007000,-0.976000,0.000000,2.213000,-0.708000,-0.010000
41408,102368.250000,23.937500,-0.012000,-0.012000,-0.978000,0.000000,-4.436000,-1.548000,-0.012000
41421,102366.000000,23.937500,-0.009000,-0.002000,-0.978000,0.000000,0.043000,3.771000,-0.009000
41434,102385.750000,24.000000,-0.001000,-0.013000,-0.975000,0.000000,-0.463000,-1.627000,-0.001000
41446,102358.750000,23.875000,-0.029000,-0.005000,-0.976000,0.000000,-2.703000,1.050000,-0.029000
41459,102446.250000,24.187500,-0.012000,-0.007000,-0.978000,0.000000,0.971000,1.050000,-0.012000
41472,102390.250000,24.062500,-0.026000,-0.005000,-0.976000,0.000000,1.776000,1.093000,-0.026000
41485,102468.250000,24.312500,-0.005000,-0.004000,-0.980000,0.000000,-0.962000,1.977000,-0.005000
41497,102382.000000,24.000000,-0.012000,-0.006000,-0.978000,0.000000,-4.375000,-1.583000,-0.012000
41510,102401.000000,24.062500,-0.012000,-0.004000,-0.983000,0.000000,-5.372000,3.850000,-0.012000
41523,102247.250000,23.437500,-0.011000,-0.006000,-0.972000,0.000000,-0.026000,1.163000,-0.011000
41536,102322.000000,23.750000,-0.025000,-0.004000,-0.975000,0.000000,1.846000,2.371000,-0.025000
41548,102399.500000,24.000000,-0.012000,-0.007000,-0.978000,0.000000,-0.332000,-3.832000,-0.012000
41561,102360.750000,23.875000,-0.029000,-0.005000,-0.977000,0.000000,-1.828000,0.210000,-0.029000
41573,102243.250000,23.437500,-0.013000,-0.003000,-0.974000,0.000000,1.347000,-0.271000,-0.013000
41587,102223.500000,23.375000,-0.014000,-0.006000,-0.976000,0.000000,-1.268000,4.252000,-0.014000
41599,102456.000000,24.250000,-0.008000,-0.005000,-0.976000,0.000000,-1.330000,2.047000,-0.008000
41612,102276.750000,23.562500,-0.011000,-0.015000,-0.983000,0.000000,-3.010000,3.850000,-0.011000
41624,102338.750000,23.750000,-0.010000,-0.004000,-0.976000,0.000000,1.041000,-2.065000,-0.010000
41637,102499.750000,24.437500,-0.001000,-0.003000,-0.975000,0.000000,-0.892000,2.047000,-0.001000
41650,102405.250000,24.062500,-0.014000,-0.005000,-0.978000,0.000000,1.846000,1.093000,-0.014000
41663,102310.500000,23.625000,-0.009000,-0.002000,-0.981000,0.000000,-3.132000,1.566000,-0.009000
41676,102415.000000,24.062500,-0.027000,-0.006000,-0.981000,0.000000,0.411000,1.093000,-0.027000
41688,102218.250000,23.312500,0.000000,-0.004000,-0.982000,0.000000,2.213000,0.691000,0.000000
41701,102400.500000,24.000000,-0.008000,-0.003000,-0.972000,0.000000,-1.828000,1.933000,-0.008000
41713,102373.500000,23.937500,-0.012000,0.010000,-0.982000,0.000000,-1.330000,0.612000,-0.012000
41727,102381.000000,23.937500,-0.014000,-0.001000,-0.978000,0.000000,-1.268000,4.217000,-0.014000
41739,102386.750000,23.937500,-0.009000,-0.004000,-0.977000,0.000000,1.347000,-6.151000,-0.009000
41752,102424.750000,24.125000,-0.014000,-0.008000,-0.976000,0.000000,-3.132000,4.252000,-0.014000
41765,102239.750000,23.437500,-0.027000,-0.004000,-0.981000,0.000000,-2.633000,0.568000,-0.027000
41777,102284.500000,23.562500,-0.023000,-0.005000,-0.976000,0.000000,-0.962000,1.093000,-0.023000
41791,102588.000000,24.750000,-0.011000,-0.004000,-0.975000,0.000000,-0.026000,1.128000,-0.011000
